"SubNo"	"Hemisphere"	"Block"	"Trial"	"ACC"	"RT"	"Twitches"	"Task"	"Congruence"	"Axes"	"HomLocation"
"1"	1	1	1	1	1	0.428144	1	"Flanker"	"Incong"	"NE.SW"	"FC1.2"
"2"	1	1	1	2	1	0.489587	1	"Flanker"	"Incong"	"NE.SW"	"FC1.2"
"3"	1	1	1	3	1	0.419005	1	"Flanker"	"Cong"	"NE.SW"	"FC1.2"
"4"	1	1	1	4	1	0.348802	1	"Flanker"	"Cong"	"NE.SW"	"FC1.2"
"5"	1	1	1	5	1	0.374758	1	"Flanker"	"Incong"	"NE.SW"	"FC1.2"
"6"	1	1	1	6	1	0.331807	2	"Flanker"	"Incong"	"N.S"	"FC1.2"
"7"	1	1	1	7	1	0.357099	2	"Flanker"	"Cong"	"N.S"	"FC1.2"
"8"	1	1	1	8	1	0.446972	2	"Flanker"	"Incong"	"N.S"	"FC1.2"
"9"	1	1	1	9	1	0.376755	2	"Flanker"	"Cong"	"N.S"	"FC1.2"
"10"	1	1	1	10	1	0.38757	2	"Flanker"	"Cong"	"N.S"	"FC1.2"
"11"	1	1	1	11	1	0.414083	2	"Flanker"	"Cong"	"E.W"	"FC1.2"
"12"	1	1	1	12	1	0.455727	2	"Flanker"	"Incong"	"E.W"	"FC1.2"
"13"	1	1	1	13	1	0.370011	2	"Flanker"	"Cong"	"E.W"	"FC1.2"
"14"	1	1	1	14	1	0.331432	2	"Flanker"	"Incong"	"E.W"	"FC1.2"
"15"	1	1	1	15	1	0.549171	2	"Flanker"	"Cong"	"E.W"	"FC1.2"
"16"	1	1	1	16	1	0.414855	1	"Flanker"	"Incong"	"NW.SE"	"FC1.2"
"17"	1	1	1	17	1	0.360615	1	"Flanker"	"Incong"	"NW.SE"	"FC1.2"
"18"	1	1	1	18	1	0.418152	1	"Flanker"	"Cong"	"NW.SE"	"FC1.2"
"19"	1	1	1	19	1	0.348082	1	"Flanker"	"Cong"	"NW.SE"	"FC1.2"
"20"	1	1	1	20	1	0.377339	1	"Flanker"	"Incong"	"NW.SE"	"FC1.2"
"21"	1	1	2	1	1	0.477663	6	"Flanker"	"Incong"	"NE.SW"	"Inion"
"22"	1	1	2	2	1	0.39135	6	"Flanker"	"Incong"	"NE.SW"	"Inion"
"23"	1	1	2	3	1	0.465578	6	"Flanker"	"Cong"	"NE.SW"	"Inion"
"24"	1	1	2	4	1	0.443629	6	"Flanker"	"Incong"	"NE.SW"	"Inion"
"25"	1	1	2	5	1	0.549326	6	"Flanker"	"Cong"	"NE.SW"	"Inion"
"26"	1	1	2	6	1	0.419093	6	"Flanker"	"Cong"	"E.W"	"Inion"
"27"	1	1	2	7	1	0.508526	6	"Flanker"	"Incong"	"E.W"	"Inion"
"28"	1	1	2	8	1	0.454732	6	"Flanker"	"Incong"	"E.W"	"Inion"
"29"	1	1	2	9	1	0.512379	6	"Flanker"	"Incong"	"E.W"	"Inion"
"30"	1	1	2	10	1	0.426077	6	"Flanker"	"Cong"	"E.W"	"Inion"
"31"	1	1	2	11	1	0.43551	6	"Flanker"	"Incong"	"NW.SE"	"Inion"
"32"	1	1	2	12	1	0.476493	6	"Flanker"	"Incong"	"NW.SE"	"Inion"
"33"	1	1	2	13	1	0.505948	6	"Flanker"	"Cong"	"NW.SE"	"Inion"
"34"	1	1	2	14	1	0.499408	6	"Flanker"	"Cong"	"NW.SE"	"Inion"
"35"	1	1	2	15	1	0.429063	6	"Flanker"	"Cong"	"NW.SE"	"Inion"
"36"	1	1	2	16	1	0.419418	7	"Flanker"	"Incong"	"N.S"	"Inion"
"37"	1	1	2	17	1	0.448534	7	"Flanker"	"Cong"	"N.S"	"Inion"
"38"	1	1	2	18	1	0.490233	7	"Flanker"	"Incong"	"N.S"	"Inion"
"39"	1	1	2	19	1	0.515845	7	"Flanker"	"Cong"	"N.S"	"Inion"
"40"	1	1	2	20	1	0.449178	7	"Flanker"	"Cong"	"N.S"	"Inion"
"41"	1	1	3	1	1	0.587108	2	"Flanker"	"Incong"	"E.W"	"C3.4"
"42"	1	1	3	2	1	0.501164	2	"Flanker"	"Incong"	"E.W"	"C3.4"
"43"	1	1	3	3	1	0.430709	2	"Flanker"	"Cong"	"E.W"	"C3.4"
"44"	1	1	3	4	1	0.428045	2	"Flanker"	"Cong"	"E.W"	"C3.4"
"45"	1	1	3	5	1	0.453664	2	"Flanker"	"Incong"	"E.W"	"C3.4"
"46"	1	1	3	6	1	0.416798	2	"Flanker"	"Cong"	"NE.SW"	"C3.4"
"47"	1	1	3	7	1	0.410662	2	"Flanker"	"Cong"	"NE.SW"	"C3.4"
"48"	1	1	3	8	1	0.340627	2	"Flanker"	"Incong"	"NE.SW"	"C3.4"
"49"	1	1	3	9	1	0.318373	2	"Flanker"	"Cong"	"NE.SW"	"C3.4"
"50"	1	1	3	10	1	0.504156	2	"Flanker"	"Incong"	"NE.SW"	"C3.4"
"51"	1	1	3	11	1	0.356489	1	"Flanker"	"Cong"	"NW.SE"	"C3.4"
"52"	1	1	3	12	1	0.398453	1	"Flanker"	"Incong"	"NW.SE"	"C3.4"
"53"	1	1	3	13	1	0.408244	1	"Flanker"	"Cong"	"NW.SE"	"C3.4"
"54"	1	1	3	14	1	0.450223	1	"Flanker"	"Incong"	"NW.SE"	"C3.4"
"55"	1	1	3	15	1	0.41184	1	"Flanker"	"Cong"	"NW.SE"	"C3.4"
"56"	1	1	3	16	1	0.39059	2	"Flanker"	"Incong"	"N.S"	"C3.4"
"57"	1	1	3	17	1	0.388172	2	"Flanker"	"Cong"	"N.S"	"C3.4"
"58"	1	1	3	18	1	0.446135	2	"Flanker"	"Incong"	"N.S"	"C3.4"
"59"	1	1	3	19	1	0.359746	2	"Flanker"	"Cong"	"N.S"	"C3.4"
"60"	1	1	3	20	1	0.386352	2	"Flanker"	"Incong"	"N.S"	"C3.4"
"61"	1	1	4	1	1	0.404212	3	"Flanker"	"Incong"	"NE.SW"	"V5"
"62"	1	1	4	2	1	0.399004	3	"Flanker"	"Cong"	"NE.SW"	"V5"
"63"	1	1	4	3	1	0.408036	3	"Flanker"	"Incong"	"NE.SW"	"V5"
"64"	1	1	4	4	1	0.449609	3	"Flanker"	"Cong"	"NE.SW"	"V5"
"65"	1	1	4	5	1	0.443501	3	"Flanker"	"Incong"	"NE.SW"	"V5"
"66"	1	1	4	6	1	0.405634	3	"Flanker"	"Cong"	"N.S"	"V5"
"67"	1	1	4	7	1	0.383201	3	"Flanker"	"Incong"	"N.S"	"V5"
"68"	1	1	4	8	1	0.424926	3	"Flanker"	"Cong"	"N.S"	"V5"
"69"	1	1	4	9	1	0.434673	3	"Flanker"	"Incong"	"N.S"	"V5"
"70"	1	1	4	10	1	0.396386	3	"Flanker"	"Cong"	"N.S"	"V5"
"71"	1	1	4	11	1	0.450111	2	"Flanker"	"Incong"	"E.W"	"V5"
"72"	1	1	4	12	1	0.459401	2	"Flanker"	"Incong"	"E.W"	"V5"
"73"	1	1	4	13	1	0.421253	2	"Flanker"	"Incong"	"E.W"	"V5"
"74"	1	1	4	14	1	0.479479	2	"Flanker"	"Cong"	"E.W"	"V5"
"75"	1	1	4	15	1	0.473229	2	"Flanker"	"Cong"	"E.W"	"V5"
"76"	1	1	4	16	1	0.496897	4	"Flanker"	"Cong"	"NW.SE"	"V5"
"77"	1	1	4	17	1	0.411344	4	"Flanker"	"Incong"	"NW.SE"	"V5"
"78"	1	1	4	18	1	0.404086	4	"Flanker"	"Cong"	"NW.SE"	"V5"
"79"	1	1	4	19	1	0.493767	4	"Flanker"	"Incong"	"NW.SE"	"V5"
"80"	1	1	4	20	1	0.439612	4	"Flanker"	"Cong"	"NW.SE"	"V5"
"81"	1	1	5	1	1	0.470093	4	"Flanker"	"Incong"	"N.S"	"LatIn"
"82"	1	1	5	2	1	0.574229	4	"Flanker"	"Cong"	"N.S"	"LatIn"
"83"	1	1	5	3	1	0.440199	4	"Flanker"	"Cong"	"N.S"	"LatIn"
"84"	1	1	5	4	1	0.529893	4	"Flanker"	"Incong"	"N.S"	"LatIn"
"85"	1	1	5	5	1	0.508009	4	"Flanker"	"Cong"	"N.S"	"LatIn"
"86"	1	1	5	6	1	0.478781	5	"Flanker"	"Incong"	"NE.SW"	"LatIn"
"87"	1	1	5	7	1	0.488261	5	"Flanker"	"Incong"	"NE.SW"	"LatIn"
"88"	1	1	5	8	1	0.518509	5	"Flanker"	"Cong"	"NE.SW"	"LatIn"
"89"	1	1	5	9	1	0.479652	5	"Flanker"	"Cong"	"NE.SW"	"LatIn"
"90"	1	1	5	10	1	0.569492	5	"Flanker"	"Incong"	"NE.SW"	"LatIn"
"91"	1	1	5	11	1	0.403543	2	"Flanker"	"Cong"	"E.W"	"LatIn"
"92"	1	1	5	12	1	0.444634	2	"Flanker"	"Cong"	"E.W"	"LatIn"
"93"	1	1	5	13	1	0.454376	2	"Flanker"	"Cong"	"E.W"	"LatIn"
"94"	1	1	5	14	1	0.400247	2	"Flanker"	"Incong"	"E.W"	"LatIn"
"95"	1	1	5	15	1	0.426495	2	"Flanker"	"Incong"	"E.W"	"LatIn"
"96"	1	1	5	16	1	0.518029	3	"Flanker"	"Incong"	"NW.SE"	"LatIn"
"97"	1	1	5	17	1	0.512251	3	"Flanker"	"Incong"	"NW.SE"	"LatIn"
"98"	1	1	5	18	1	0.505701	3	"Flanker"	"Cong"	"NW.SE"	"LatIn"
"99"	1	1	5	19	1	0.467794	3	"Flanker"	"Cong"	"NW.SE"	"LatIn"
"100"	1	1	5	20	1	0.381084	3	"Flanker"	"Incong"	"NW.SE"	"LatIn"
"101"	1	1	6	1	1	0.509239	4	"Flanker"	"Incong"	"NW.SE"	"FC5.6"
"102"	1	1	6	2	1	0.471625	4	"Flanker"	"Cong"	"NW.SE"	"FC5.6"
"103"	1	1	6	3	1	0.59362	4	"Flanker"	"Cong"	"NW.SE"	"FC5.6"
"104"	1	1	6	4	1	0.682923	4	"Flanker"	"Cong"	"NW.SE"	"FC5.6"
"105"	1	1	6	5	1	0.48474	4	"Flanker"	"Incong"	"NW.SE"	"FC5.6"
"106"	1	1	6	6	1	0.544175	2	"Flanker"	"Incong"	"NE.SW"	"FC5.6"
"107"	1	1	6	7	1	0.459283	2	"Flanker"	"Cong"	"NE.SW"	"FC5.6"
"108"	1	1	6	8	1	0.516231	2	"Flanker"	"Incong"	"NE.SW"	"FC5.6"
"109"	1	1	6	9	1	0.509791	2	"Flanker"	"Cong"	"NE.SW"	"FC5.6"
"110"	1	1	6	10	1	0.455651	2	"Flanker"	"Cong"	"NE.SW"	"FC5.6"
"111"	1	1	6	11	1	0.406059	1	"Flanker"	"Cong"	"E.W"	"FC5.6"
"112"	1	1	6	12	1	0.371074	1	"Flanker"	"Cong"	"E.W"	"FC5.6"
"113"	1	1	6	13	1	0.380368	1	"Flanker"	"Incong"	"E.W"	"FC5.6"
"114"	1	1	6	14	1	0.470235	1	"Flanker"	"Incong"	"E.W"	"FC5.6"
"115"	1	1	6	15	1	0.480331	1	"Flanker"	"Incong"	"E.W"	"FC5.6"
"116"	1	1	6	16	1	0.388272	5	"Flanker"	"Incong"	"N.S"	"FC5.6"
"117"	1	1	6	17	1	0.381757	5	"Flanker"	"Incong"	"N.S"	"FC5.6"
"118"	1	1	6	18	1	0.423271	5	"Flanker"	"Cong"	"N.S"	"FC5.6"
"119"	1	1	6	19	1	0.465651	5	"Flanker"	"Cong"	"N.S"	"FC5.6"
"120"	1	1	6	20	1	0.587361	5	"Flanker"	"Incong"	"N.S"	"FC5.6"
"121"	1	1	7	1	1	0.454194	2	"Flanker"	"Cong"	"N.S"	"AF"
"122"	1	1	7	2	1	0.416257	2	"Flanker"	"Cong"	"N.S"	"AF"
"123"	1	1	7	3	1	0.378045	2	"Flanker"	"Incong"	"N.S"	"AF"
"124"	1	1	7	4	1	0.451457	2	"Flanker"	"Incong"	"N.S"	"AF"
"125"	1	1	7	5	1	0.413262	2	"Flanker"	"Incong"	"N.S"	"AF"
"126"	1	1	7	6	1	0.360125	1	"Flanker"	"Incong"	"NW.SE"	"AF"
"127"	1	1	7	7	1	0.341114	1	"Flanker"	"Incong"	"NW.SE"	"AF"
"128"	1	1	7	8	1	0.335141	1	"Flanker"	"Cong"	"NW.SE"	"AF"
"129"	1	1	7	9	1	0.32887	1	"Flanker"	"Cong"	"NW.SE"	"AF"
"130"	1	1	7	10	1	0.258502	1	"Flanker"	"Incong"	"NW.SE"	"AF"
"131"	1	1	7	11	1	0.367993	2	"Flanker"	"Cong"	"E.W"	"AF"
"132"	1	1	7	12	1	0.293305	2	"Flanker"	"Cong"	"E.W"	"AF"
"133"	1	1	7	13	1	0.51166	2	"Flanker"	"Incong"	"E.W"	"AF"
"134"	1	1	7	14	1	0.408755	2	"Flanker"	"Incong"	"E.W"	"AF"
"135"	1	1	7	15	1	0.370556	2	"Flanker"	"Cong"	"E.W"	"AF"
"136"	1	1	7	16	1	0.385032	1	"Flanker"	"Incong"	"NE.SW"	"AF"
"137"	1	1	7	17	1	0.330798	1	"Flanker"	"Cong"	"NE.SW"	"AF"
"138"	1	1	7	18	1	0.388337	1	"Flanker"	"Incong"	"NE.SW"	"AF"
"139"	1	1	7	19	1	0.334232	1	"Flanker"	"Cong"	"NE.SW"	"AF"
"140"	1	1	7	20	1	0.375973	1	"Flanker"	"Cong"	"NE.SW"	"AF"
"141"	1	1	8	1	1	0.407175	4	"Flanker"	"Cong"	"N.S"	"TPJ"
"142"	1	1	8	2	1	0.41745	4	"Flanker"	"Incong"	"N.S"	"TPJ"
"143"	1	1	8	3	1	0.363121	4	"Flanker"	"Cong"	"N.S"	"TPJ"
"144"	1	1	8	4	1	0.341297	4	"Flanker"	"Cong"	"N.S"	"TPJ"
"145"	1	1	8	5	1	0.574194	4	"Flanker"	"Incong"	"N.S"	"TPJ"
"146"	1	1	8	6	1	0.425332	3	"Flanker"	"Incong"	"NE.SW"	"TPJ"
"147"	1	1	8	7	1	0.385549	3	"Flanker"	"Incong"	"NE.SW"	"TPJ"
"148"	1	1	8	8	1	0.304647	3	"Flanker"	"Cong"	"NE.SW"	"TPJ"
"149"	1	1	8	9	1	0.357794	3	"Flanker"	"Incong"	"NE.SW"	"TPJ"
"150"	1	1	8	10	1	0.415967	3	"Flanker"	"Cong"	"NE.SW"	"TPJ"
"151"	1	1	8	11	1	0.404052	4	"Flanker"	"Cong"	"NW.SE"	"TPJ"
"152"	1	1	8	12	1	0.398514	4	"Flanker"	"Cong"	"NW.SE"	"TPJ"
"153"	1	1	8	13	1	0.487677	4	"Flanker"	"Cong"	"NW.SE"	"TPJ"
"154"	1	1	8	14	1	0.450794	4	"Flanker"	"Incong"	"NW.SE"	"TPJ"
"155"	1	1	8	15	1	0.491767	4	"Flanker"	"Incong"	"NW.SE"	"TPJ"
"156"	1	1	8	16	1	0.500735	2	"Flanker"	"Incong"	"E.W"	"TPJ"
"157"	1	1	8	17	1	0.431554	2	"Flanker"	"Incong"	"E.W"	"TPJ"
"158"	1	1	8	18	1	0.456775	2	"Flanker"	"Cong"	"E.W"	"TPJ"
"159"	1	1	8	19	1	0.46629	2	"Flanker"	"Incong"	"E.W"	"TPJ"
"160"	1	1	8	20	1	0.427967	2	"Flanker"	"Cong"	"E.W"	"TPJ"
"161"	1	1	9	1	1	0.415359	2	"Flanker"	"Cong"	"NE.SW"	"FP"
"162"	1	1	9	2	1	0.457071	2	"Flanker"	"Incong"	"NE.SW"	"FP"
"163"	1	1	9	3	1	0.40257	2	"Flanker"	"Cong"	"NE.SW"	"FP"
"164"	1	1	9	4	1	0.412654	2	"Flanker"	"Incong"	"NE.SW"	"FP"
"165"	1	1	9	5	1	0.358311	2	"Flanker"	"Incong"	"NE.SW"	"FP"
"166"	1	1	9	6	1	0.403864	4	"Flanker"	"Incong"	"N.S"	"FP"
"167"	1	1	9	7	1	0.461468	4	"Flanker"	"Cong"	"N.S"	"FP"
"168"	1	1	9	8	1	0.503649	4	"Flanker"	"Incong"	"N.S"	"FP"
"169"	1	1	9	9	1	0.497339	4	"Flanker"	"Incong"	"N.S"	"FP"
"170"	1	1	9	10	1	0.379477	4	"Flanker"	"Cong"	"N.S"	"FP"
"171"	1	1	9	11	1	0.354857	2	"Flanker"	"Incong"	"E.W"	"FP"
"172"	1	1	9	12	1	0.364489	2	"Flanker"	"Cong"	"E.W"	"FP"
"173"	1	1	9	13	1	0.358406	2	"Flanker"	"Cong"	"E.W"	"FP"
"174"	1	1	9	14	1	0.384262	2	"Flanker"	"Cong"	"E.W"	"FP"
"175"	1	1	9	15	1	0.426275	2	"Flanker"	"Incong"	"E.W"	"FP"
"176"	1	1	9	16	1	0.355412	1	"Flanker"	"Cong"	"NW.SE"	"FP"
"177"	1	1	9	17	1	0.317048	1	"Flanker"	"Cong"	"NW.SE"	"FP"
"178"	1	1	9	18	1	0.311244	1	"Flanker"	"Incong"	"NW.SE"	"FP"
"179"	1	1	9	19	1	0.304729	1	"Flanker"	"Cong"	"NW.SE"	"FP"
"180"	1	1	9	20	1	0.346641	1	"Flanker"	"Incong"	"NW.SE"	"FP"
"181"	1	1	10	1	1	0.321909	1	"Flanker"	"Incong"	"NW.SE"	"F3.4"
"182"	1	1	10	2	1	0.364512	1	"Flanker"	"Cong"	"NW.SE"	"F3.4"
"183"	1	1	10	3	1	0.374415	1	"Flanker"	"Cong"	"NW.SE"	"F3.4"
"184"	1	1	10	4	1	0.464439	1	"Flanker"	"Incong"	"NW.SE"	"F3.4"
"185"	1	1	10	5	1	0.505971	1	"Flanker"	"Incong"	"NW.SE"	"F3.4"
"186"	1	1	10	6	1	0.380571	1	"Flanker"	"Cong"	"NE.SW"	"F3.4"
"187"	1	1	10	7	1	0.342748	1	"Flanker"	"Incong"	"NE.SW"	"F3.4"
"188"	1	1	10	8	1	0.38805	1	"Flanker"	"Incong"	"NE.SW"	"F3.4"
"189"	1	1	10	9	1	0.349566	1	"Flanker"	"Cong"	"NE.SW"	"F3.4"
"190"	1	1	10	10	1	0.391314	1	"Flanker"	"Cong"	"NE.SW"	"F3.4"
"191"	1	1	10	11	1	0.375292	1	"Flanker"	"Incong"	"E.W"	"F3.4"
"192"	1	1	10	12	1	0.352906	1	"Flanker"	"Cong"	"E.W"	"F3.4"
"193"	1	1	10	13	1	0.378515	1	"Flanker"	"Incong"	"E.W"	"F3.4"
"194"	1	1	10	14	1	0.420844	1	"Flanker"	"Cong"	"E.W"	"F3.4"
"195"	1	1	10	15	1	0.39813	1	"Flanker"	"Cong"	"E.W"	"F3.4"
"196"	1	1	10	16	1	0.320374	1	"Flanker"	"Cong"	"N.S"	"F3.4"
"197"	1	1	10	17	1	0.346549	1	"Flanker"	"Cong"	"N.S"	"F3.4"
"198"	1	1	10	18	0	0.308097	1	"Flanker"	"Incong"	"N.S"	"F3.4"
"199"	1	1	10	19	1	0.350379	1	"Flanker"	"Incong"	"N.S"	"F3.4"
"200"	1	1	10	20	1	0.455536	1	"Flanker"	"Incong"	"N.S"	"F3.4"
"201"	1	1	11	1	1	0.516622	1	"Flanker"	"Incong"	"NE.SW"	"P3.4"
"202"	1	1	11	2	1	0.47827	1	"Flanker"	"Cong"	"NE.SW"	"P3.4"
"203"	1	1	11	3	1	0.488139	1	"Flanker"	"Incong"	"NE.SW"	"P3.4"
"204"	1	1	11	4	1	0.450093	1	"Flanker"	"Incong"	"NE.SW"	"P3.4"
"205"	1	1	11	5	1	0.379816	1	"Flanker"	"Cong"	"NE.SW"	"P3.4"
"206"	1	1	11	6	1	0.584481	1	"Flanker"	"Cong"	"NW.SE"	"P3.4"
"207"	1	1	11	7	1	0.402148	1	"Flanker"	"Incong"	"NW.SE"	"P3.4"
"208"	1	1	11	8	1	0.427918	1	"Flanker"	"Incong"	"NW.SE"	"P3.4"
"209"	1	1	11	9	1	0.405982	1	"Flanker"	"Cong"	"NW.SE"	"P3.4"
"210"	1	1	11	10	1	0.400036	1	"Flanker"	"Incong"	"NW.SE"	"P3.4"
"211"	1	1	11	11	1	0.401678	1	"Flanker"	"Cong"	"N.S"	"P3.4"
"212"	1	1	11	12	1	0.411592	1	"Flanker"	"Incong"	"N.S"	"P3.4"
"213"	1	1	11	13	1	0.405396	1	"Flanker"	"Incong"	"N.S"	"P3.4"
"214"	1	1	11	14	1	0.383085	1	"Flanker"	"Cong"	"N.S"	"P3.4"
"215"	1	1	11	15	1	0.376783	1	"Flanker"	"Cong"	"N.S"	"P3.4"
"216"	1	1	11	16	1	0.448391	1	"Flanker"	"Incong"	"E.W"	"P3.4"
"217"	1	1	11	17	1	0.362343	1	"Flanker"	"Incong"	"E.W"	"P3.4"
"218"	1	1	11	18	1	0.389387	1	"Flanker"	"Cong"	"E.W"	"P3.4"
"219"	1	1	11	19	1	0.349594	1	"Flanker"	"Cong"	"E.W"	"P3.4"
"220"	1	1	11	20	1	0.375428	1	"Flanker"	"Cong"	"E.W"	"P3.4"
"221"	1	1	12	1	1	0.402421	0	"Flanker"	"Cong"	"NW.SE"	"FZ"
"222"	1	1	12	2	1	0.39624	0	"Flanker"	"Incong"	"NW.SE"	"FZ"
"223"	1	1	12	3	1	0.406275	0	"Flanker"	"Incong"	"NW.SE"	"FZ"
"224"	1	1	12	4	1	0.351642	0	"Flanker"	"Cong"	"NW.SE"	"FZ"
"225"	1	1	12	5	1	0.457592	0	"Flanker"	"Cong"	"NW.SE"	"FZ"
"226"	1	1	12	6	1	0.448225	0	"Flanker"	"Cong"	"E.W"	"FZ"
"227"	1	1	12	7	1	0.521902	0	"Flanker"	"Cong"	"E.W"	"FZ"
"228"	1	1	12	8	1	0.403995	0	"Flanker"	"Incong"	"E.W"	"FZ"
"229"	1	1	12	9	1	0.461334	0	"Flanker"	"Incong"	"E.W"	"FZ"
"230"	1	1	12	10	1	0.439459	0	"Flanker"	"Incong"	"E.W"	"FZ"
"231"	1	1	12	11	1	0.424617	0	"Flanker"	"Incong"	"NE.SW"	"FZ"
"232"	1	1	12	12	1	0.404377	0	"Flanker"	"Cong"	"NE.SW"	"FZ"
"233"	1	1	12	13	1	0.460714	0	"Flanker"	"Incong"	"NE.SW"	"FZ"
"234"	1	1	12	14	1	0.409235	0	"Flanker"	"Cong"	"NE.SW"	"FZ"
"235"	1	1	12	15	1	0.531827	0	"Flanker"	"Incong"	"NE.SW"	"FZ"
"236"	1	1	12	16	1	0.430491	0	"Flanker"	"Cong"	"N.S"	"FZ"
"237"	1	1	12	17	1	0.42416	0	"Flanker"	"Incong"	"N.S"	"FZ"
"238"	1	1	12	18	1	0.386192	0	"Flanker"	"Cong"	"N.S"	"FZ"
"239"	1	1	12	19	1	0.460011	0	"Flanker"	"Incong"	"N.S"	"FZ"
"240"	1	1	12	20	1	0.405756	0	"Flanker"	"Cong"	"N.S"	"FZ"
"241"	1	1	13	1	1	0.48517	4	"Flanker"	"Incong"	"NE.SW"	"LatOc"
"242"	1	1	13	2	1	0.526488	4	"Flanker"	"Cong"	"NE.SW"	"LatOc"
"243"	1	1	13	3	1	0.344676	4	"Flanker"	"Cong"	"NE.SW"	"LatOc"
"244"	1	1	13	4	1	0.434735	4	"Flanker"	"Incong"	"NE.SW"	"LatOc"
"245"	1	1	13	5	1	0.367662	4	"Flanker"	"Incong"	"NE.SW"	"LatOc"
"246"	1	1	13	6	1	0.563703	6	"Flanker"	"Incong"	"NW.SE"	"LatOc"
"247"	1	1	13	7	1	0.589532	6	"Flanker"	"Incong"	"NW.SE"	"LatOc"
"248"	1	1	13	8	1	0.567385	6	"Flanker"	"Cong"	"NW.SE"	"LatOc"
"249"	1	1	13	9	1	0.562355	6	"Flanker"	"Cong"	"NW.SE"	"LatOc"
"250"	1	1	13	10	1	0.62009	6	"Flanker"	"Cong"	"NW.SE"	"LatOc"
"251"	1	1	13	11	1	0.614511	7	"Flanker"	"Incong"	"N.S"	"LatOc"
"252"	1	1	13	12	1	0.672128	7	"Flanker"	"Incong"	"N.S"	"LatOc"
"253"	1	1	13	13	1	0.649881	7	"Flanker"	"Cong"	"N.S"	"LatOc"
"254"	1	1	13	14	1	0.675482	7	"Flanker"	"Cong"	"N.S"	"LatOc"
"255"	1	1	13	15	1	0.68576	7	"Flanker"	"Cong"	"N.S"	"LatOc"
"256"	1	1	13	16	1	0.544166	3	"Flanker"	"Cong"	"E.W"	"LatOc"
"257"	1	1	13	17	1	0.506231	3	"Flanker"	"Cong"	"E.W"	"LatOc"
"258"	1	1	13	18	1	0.62827	3	"Flanker"	"Incong"	"E.W"	"LatOc"
"259"	1	1	13	19	1	0.573986	3	"Flanker"	"Incong"	"E.W"	"LatOc"
"260"	1	1	13	20	1	0.519351	3	"Flanker"	"Incong"	"E.W"	"LatOc"
"261"	1	1	14	1	1	0.389991	1	"Flanker"	"Incong"	"NW.SE"	"PO3.4"
"262"	1	1	14	2	1	0.367997	1	"Flanker"	"Cong"	"NW.SE"	"PO3.4"
"263"	1	1	14	3	1	0.489748	1	"Flanker"	"Cong"	"NW.SE"	"PO3.4"
"264"	1	1	14	4	1	0.451428	1	"Flanker"	"Incong"	"NW.SE"	"PO3.4"
"265"	1	1	14	5	1	0.429294	1	"Flanker"	"Cong"	"NW.SE"	"PO3.4"
"266"	1	1	14	6	1	0.388817	1	"Flanker"	"Incong"	"N.S"	"PO3.4"
"267"	1	1	14	7	1	0.445169	1	"Flanker"	"Cong"	"N.S"	"PO3.4"
"268"	1	1	14	8	1	0.471061	1	"Flanker"	"Incong"	"N.S"	"PO3.4"
"269"	1	1	14	9	1	0.49655	1	"Flanker"	"Incong"	"N.S"	"PO3.4"
"270"	1	1	14	10	1	0.413743	1	"Flanker"	"Cong"	"N.S"	"PO3.4"
"271"	1	1	14	11	1	0.430957	0	"Flanker"	"Incong"	"E.W"	"PO3.4"
"272"	1	1	14	12	1	0.408929	0	"Flanker"	"Cong"	"E.W"	"PO3.4"
"273"	1	1	14	13	1	0.402502	0	"Flanker"	"Cong"	"E.W"	"PO3.4"
"274"	1	1	14	14	1	0.396016	0	"Flanker"	"Incong"	"E.W"	"PO3.4"
"275"	1	1	14	15	1	0.469803	0	"Flanker"	"Cong"	"E.W"	"PO3.4"
"276"	1	1	14	16	1	0.680271	0	"Flanker"	"Incong"	"NE.SW"	"PO3.4"
"277"	1	1	14	17	1	0.386255	0	"Flanker"	"Cong"	"NE.SW"	"PO3.4"
"278"	1	1	14	18	1	0.444196	0	"Flanker"	"Incong"	"NE.SW"	"PO3.4"
"279"	1	1	14	19	1	0.422085	0	"Flanker"	"Incong"	"NE.SW"	"PO3.4"
"280"	1	1	14	20	1	0.447646	0	"Flanker"	"Cong"	"NE.SW"	"PO3.4"
"281"	1	1	15	1	1	0.366293	4	"Flanker"	"Cong"	"N.S"	"T7.8"
"282"	1	1	15	2	1	0.472484	4	"Flanker"	"Cong"	"N.S"	"T7.8"
"283"	1	1	15	3	1	0.433825	4	"Flanker"	"Incong"	"N.S"	"T7.8"
"284"	1	1	15	4	1	0.427801	4	"Flanker"	"Cong"	"N.S"	"T7.8"
"285"	1	1	15	5	1	0.469909	4	"Flanker"	"Incong"	"N.S"	"T7.8"
"286"	1	1	15	6	1	0.497964	4	"Flanker"	"Incong"	"NW.SE"	"T7.8"
"287"	1	1	15	7	1	0.411906	4	"Flanker"	"Cong"	"NW.SE"	"T7.8"
"288"	1	1	15	8	1	0.373265	4	"Flanker"	"Cong"	"NW.SE"	"T7.8"
"289"	1	1	15	9	1	0.527136	4	"Flanker"	"Incong"	"NW.SE"	"T7.8"
"290"	1	1	15	10	1	0.55316	4	"Flanker"	"Cong"	"NW.SE"	"T7.8"
"291"	1	1	15	11	1	0.406178	4	"Flanker"	"Incong"	"NE.SW"	"T7.8"
"292"	1	1	15	12	1	0.463373	4	"Flanker"	"Incong"	"NE.SW"	"T7.8"
"293"	1	1	15	13	1	0.41238	4	"Flanker"	"Cong"	"NE.SW"	"T7.8"
"294"	1	1	15	14	1	0.472516	4	"Flanker"	"Cong"	"NE.SW"	"T7.8"
"295"	1	1	15	15	1	0.508861	4	"Flanker"	"Incong"	"NE.SW"	"T7.8"
"296"	1	1	15	16	1	0.392434	3	"Flanker"	"Cong"	"E.W"	"T7.8"
"297"	1	1	15	17	1	0.370264	3	"Flanker"	"Incong"	"E.W"	"T7.8"
"298"	1	1	15	18	1	0.459725	3	"Flanker"	"Incong"	"E.W"	"T7.8"
"299"	1	1	15	19	1	0.517603	3	"Flanker"	"Incong"	"E.W"	"T7.8"
"300"	1	1	15	20	1	0.431671	3	"Flanker"	"Cong"	"E.W"	"T7.8"
"301"	1	1	16	1	1	0.477935	2	"Flanker"	"Incong"	"E.W"	"OZ"
"302"	1	1	16	2	1	0.407589	2	"Flanker"	"Cong"	"E.W"	"OZ"
"303"	1	1	16	3	1	0.401073	2	"Flanker"	"Cong"	"E.W"	"OZ"
"304"	1	1	16	4	1	0.443267	2	"Flanker"	"Incong"	"E.W"	"OZ"
"305"	1	1	16	5	1	0.373281	2	"Flanker"	"Cong"	"E.W"	"OZ"
"306"	1	1	16	6	1	0.388717	1	"Flanker"	"Cong"	"N.S"	"OZ"
"307"	1	1	16	7	1	0.366321	1	"Flanker"	"Cong"	"N.S"	"OZ"
"308"	1	1	16	8	1	0.375818	1	"Flanker"	"Cong"	"N.S"	"OZ"
"309"	1	1	16	9	1	0.433864	1	"Flanker"	"Incong"	"N.S"	"OZ"
"310"	1	1	16	10	1	0.479227	1	"Flanker"	"Incong"	"N.S"	"OZ"
"311"	1	1	16	11	1	0.38664	1	"Flanker"	"Cong"	"NE.SW"	"OZ"
"312"	1	1	16	12	1	0.411391	1	"Flanker"	"Incong"	"NE.SW"	"OZ"
"313"	1	1	16	13	1	0.341022	1	"Flanker"	"Incong"	"NE.SW"	"OZ"
"314"	1	1	16	14	1	0.383058	1	"Flanker"	"Cong"	"NE.SW"	"OZ"
"315"	1	1	16	15	1	0.360826	1	"Flanker"	"Incong"	"NE.SW"	"OZ"
"316"	1	1	16	16	1	0.376033	1	"Flanker"	"Cong"	"NW.SE"	"OZ"
"317"	1	1	16	17	1	0.354068	1	"Flanker"	"Cong"	"NW.SE"	"OZ"
"318"	1	1	16	18	1	0.395654	1	"Flanker"	"Incong"	"NW.SE"	"OZ"
"319"	1	1	16	19	1	0.373347	1	"Flanker"	"Incong"	"NW.SE"	"OZ"
"320"	1	1	16	20	0	0.399166	1	"Flanker"	"Incong"	"NW.SE"	"OZ"
"321"	1	1	17	1	1	0.46549	3	"Flanker"	"Cong"	"NW.SE"	"P7.8"
"322"	1	1	17	2	1	0.507575	3	"Flanker"	"Incong"	"NW.SE"	"P7.8"
"323"	1	1	17	3	1	0.421309	3	"Flanker"	"Cong"	"NW.SE"	"P7.8"
"324"	1	1	17	4	1	0.574855	3	"Flanker"	"Incong"	"NW.SE"	"P7.8"
"325"	1	1	17	5	1	0.520835	3	"Flanker"	"Cong"	"NW.SE"	"P7.8"
"326"	1	1	17	6	1	0.452222	2	"Flanker"	"Incong"	"E.W"	"P7.8"
"327"	1	1	17	7	1	0.39712	2	"Flanker"	"Cong"	"E.W"	"P7.8"
"328"	1	1	17	8	1	0.410546	2	"Flanker"	"Incong"	"E.W"	"P7.8"
"329"	1	1	17	9	1	0.436999	2	"Flanker"	"Cong"	"E.W"	"P7.8"
"330"	1	1	17	10	1	0.398256	2	"Flanker"	"Incong"	"E.W"	"P7.8"
"331"	1	1	17	11	1	0.462534	4	"Flanker"	"Cong"	"NE.SW"	"P7.8"
"332"	1	1	17	12	1	0.504547	4	"Flanker"	"Cong"	"NE.SW"	"P7.8"
"333"	1	1	17	13	1	0.641492	4	"Flanker"	"Incong"	"NE.SW"	"P7.8"
"334"	1	1	17	14	1	0.635443	4	"Flanker"	"Incong"	"NE.SW"	"P7.8"
"335"	1	1	17	15	1	0.456841	4	"Flanker"	"Cong"	"NE.SW"	"P7.8"
"336"	1	1	17	16	NA	2.000124	NA	"Flanker"	"Incong"	"N.S"	"P7.8"
"337"	1	1	17	17	NA	1.999884	NA	"Flanker"	"Cong"	"N.S"	"P7.8"
"338"	1	1	17	18	NA	1.999814	NA	"Flanker"	"Incong"	"N.S"	"P7.8"
"339"	1	1	17	19	NA	2.000232	NA	"Flanker"	"Cong"	"N.S"	"P7.8"
"340"	1	1	17	20	NA	2.000106	NA	"Flanker"	"Incong"	"N.S"	"P7.8"
"341"	1	1	18	1	1	0.645988	0	"Flanker"	"Incong"	"N.S"	"PZ"
"342"	1	1	18	2	1	0.382938	0	"Flanker"	"Cong"	"N.S"	"PZ"
"343"	1	1	18	3	1	0.392831	0	"Flanker"	"Incong"	"N.S"	"PZ"
"344"	1	1	18	4	1	0.470492	0	"Flanker"	"Cong"	"N.S"	"PZ"
"345"	1	1	18	5	1	0.433592	0	"Flanker"	"Incong"	"N.S"	"PZ"
"346"	1	1	18	6	1	0.387604	0	"Flanker"	"Cong"	"NE.SW"	"PZ"
"347"	1	1	18	7	1	0.34959	0	"Flanker"	"Incong"	"NE.SW"	"PZ"
"348"	1	1	18	8	1	0.327383	0	"Flanker"	"Cong"	"NE.SW"	"PZ"
"349"	1	1	18	9	1	0.321254	0	"Flanker"	"Cong"	"NE.SW"	"PZ"
"350"	1	1	18	10	1	0.379013	0	"Flanker"	"Incong"	"NE.SW"	"PZ"
"351"	1	1	18	11	1	0.341501	0	"Flanker"	"Cong"	"E.W"	"PZ"
"352"	1	1	18	12	1	0.399226	0	"Flanker"	"Cong"	"E.W"	"PZ"
"353"	1	1	18	13	1	0.457302	0	"Flanker"	"Cong"	"E.W"	"PZ"
"354"	1	1	18	14	1	0.389268	0	"Flanker"	"Incong"	"E.W"	"PZ"
"355"	1	1	18	15	1	0.444793	0	"Flanker"	"Incong"	"E.W"	"PZ"
"356"	1	1	18	16	1	0.340123	0	"Flanker"	"Incong"	"NW.SE"	"PZ"
"357"	1	1	18	17	1	0.365372	0	"Flanker"	"Incong"	"NW.SE"	"PZ"
"358"	1	1	18	18	1	0.407478	0	"Flanker"	"Cong"	"NW.SE"	"PZ"
"359"	1	1	18	19	1	0.385351	0	"Flanker"	"Cong"	"NW.SE"	"PZ"
"360"	1	1	18	20	1	0.443268	0	"Flanker"	"Incong"	"NW.SE"	"PZ"
"361"	1	1	19	1	1	0.403569	2	"Flanker"	"Incong"	"N.S"	"CP5.6"
"362"	1	1	19	2	1	0.413726	2	"Flanker"	"Incong"	"N.S"	"CP5.6"
"363"	1	1	19	3	1	0.471089	2	"Flanker"	"Cong"	"N.S"	"CP5.6"
"364"	1	1	19	4	1	0.544971	2	"Flanker"	"Incong"	"N.S"	"CP5.6"
"365"	1	1	19	5	1	0.394698	2	"Flanker"	"Cong"	"N.S"	"CP5.6"
"366"	1	1	19	6	1	0.397963	1	"Flanker"	"Incong"	"NE.SW"	"CP5.6"
"367"	1	1	19	7	1	0.423927	1	"Flanker"	"Cong"	"NE.SW"	"CP5.6"
"368"	1	1	19	8	1	0.369764	1	"Flanker"	"Cong"	"NE.SW"	"CP5.6"
"369"	1	1	19	9	1	0.411655	1	"Flanker"	"Cong"	"NE.SW"	"CP5.6"
"370"	1	1	19	10	1	0.35699	1	"Flanker"	"Incong"	"NE.SW"	"CP5.6"
"371"	1	1	19	11	1	0.319267	1	"Flanker"	"Incong"	"NW.SE"	"CP5.6"
"372"	1	1	19	12	1	0.425725	1	"Flanker"	"Cong"	"NW.SE"	"CP5.6"
"373"	1	1	19	13	1	0.370848	1	"Flanker"	"Cong"	"NW.SE"	"CP5.6"
"374"	1	1	19	14	1	0.381325	1	"Flanker"	"Cong"	"NW.SE"	"CP5.6"
"375"	1	1	19	15	1	0.422232	1	"Flanker"	"Incong"	"NW.SE"	"CP5.6"
"376"	1	1	19	16	1	0.336148	1	"Flanker"	"Incong"	"E.W"	"CP5.6"
"377"	1	1	19	17	1	0.409814	1	"Flanker"	"Incong"	"E.W"	"CP5.6"
"378"	1	1	19	18	1	0.486167	1	"Flanker"	"Incong"	"E.W"	"CP5.6"
"379"	1	1	19	19	1	0.398161	1	"Flanker"	"Cong"	"E.W"	"CP5.6"
"380"	1	1	19	20	1	0.472224	1	"Flanker"	"Cong"	"E.W"	"CP5.6"
"381"	1	1	20	1	1	0.421611	0	"Flanker"	"Incong"	"N.S"	"CZ"
"382"	1	1	20	2	1	0.431645	0	"Flanker"	"Cong"	"N.S"	"CZ"
"383"	1	1	20	3	1	0.520873	0	"Flanker"	"Incong"	"N.S"	"CZ"
"384"	1	1	20	4	1	0.402987	0	"Flanker"	"Cong"	"N.S"	"CZ"
"385"	1	1	20	5	1	0.476543	0	"Flanker"	"Incong"	"N.S"	"CZ"
"386"	1	1	20	6	1	0.551414	0	"Flanker"	"Incong"	"NE.SW"	"CZ"
"387"	1	1	20	7	1	0.578245	0	"Flanker"	"Cong"	"NE.SW"	"CZ"
"388"	1	1	20	8	1	0.412297	0	"Flanker"	"Cong"	"NE.SW"	"CZ"
"389"	1	1	20	9	1	0.340709	0	"Flanker"	"Cong"	"NE.SW"	"CZ"
"390"	1	1	20	10	1	0.382948	0	"Flanker"	"Incong"	"NE.SW"	"CZ"
"391"	1	1	20	11	1	0.360251	0	"Flanker"	"Incong"	"NW.SE"	"CZ"
"392"	1	1	20	12	1	0.370413	0	"Flanker"	"Incong"	"NW.SE"	"CZ"
"393"	1	1	20	13	1	0.492	0	"Flanker"	"Incong"	"NW.SE"	"CZ"
"394"	1	1	20	14	1	0.453962	0	"Flanker"	"Cong"	"NW.SE"	"CZ"
"395"	1	1	20	15	1	0.383552	0	"Flanker"	"Cong"	"NW.SE"	"CZ"
"396"	1	1	20	16	1	0.382267	0	"Flanker"	"Incong"	"E.W"	"CZ"
"397"	1	1	20	17	1	0.360881	0	"Flanker"	"Cong"	"E.W"	"CZ"
"398"	1	1	20	18	1	0.44963	0	"Flanker"	"Cong"	"E.W"	"CZ"
"399"	1	1	20	19	1	0.491801	0	"Flanker"	"Cong"	"E.W"	"CZ"
"400"	1	1	20	20	1	0.373236	0	"Flanker"	"Incong"	"E.W"	"CZ"
"401"	1	1	21	1	1	0.454154	0	"Flanker"	"Incong"	"NE.SW"	"CP1.2"
"402"	1	1	21	2	1	0.370034	0	"Flanker"	"Cong"	"NE.SW"	"CP1.2"
"403"	1	1	21	3	1	0.393451	0	"Flanker"	"Cong"	"NE.SW"	"CP1.2"
"404"	1	1	21	4	1	0.371351	0	"Flanker"	"Incong"	"NE.SW"	"CP1.2"
"405"	1	1	21	5	1	0.413313	0	"Flanker"	"Cong"	"NE.SW"	"CP1.2"
"406"	1	1	21	6	1	0.365084	0	"Flanker"	"Incong"	"NW.SE"	"CP1.2"
"407"	1	1	21	7	1	0.406598	0	"Flanker"	"Incong"	"NW.SE"	"CP1.2"
"408"	1	1	21	8	1	0.400552	0	"Flanker"	"Cong"	"NW.SE"	"CP1.2"
"409"	1	1	21	9	1	0.378231	0	"Flanker"	"Cong"	"NW.SE"	"CP1.2"
"410"	1	1	21	10	1	0.372033	0	"Flanker"	"Incong"	"NW.SE"	"CP1.2"
"411"	1	1	21	11	1	0.358632	0	"Flanker"	"Incong"	"N.S"	"CP1.2"
"412"	1	1	21	12	1	0.384131	0	"Flanker"	"Cong"	"N.S"	"CP1.2"
"413"	1	1	21	13	1	0.44175	0	"Flanker"	"Incong"	"N.S"	"CP1.2"
"414"	1	1	21	14	1	0.451836	0	"Flanker"	"Incong"	"N.S"	"CP1.2"
"415"	1	1	21	15	1	0.397219	0	"Flanker"	"Cong"	"N.S"	"CP1.2"
"416"	1	1	21	16	1	0.421492	0	"Flanker"	"Cong"	"E.W"	"CP1.2"
"417"	1	1	21	17	1	0.38245	0	"Flanker"	"Incong"	"E.W"	"CP1.2"
"418"	1	1	21	18	1	0.362026	0	"Flanker"	"Cong"	"E.W"	"CP1.2"
"419"	1	1	21	19	1	0.482567	0	"Flanker"	"Incong"	"E.W"	"CP1.2"
"420"	1	1	21	20	1	0.444819	0	"Flanker"	"Cong"	"E.W"	"CP1.2"
"421"	1	1	22	1	1	0.470618	4	"Flanker"	"Incong"	"N.S"	"F7.8"
"422"	1	1	22	2	1	0.559834	4	"Flanker"	"Cong"	"N.S"	"F7.8"
"423"	1	1	22	3	1	0.53795	4	"Flanker"	"Incong"	"N.S"	"F7.8"
"424"	1	1	22	4	1	0.579436	4	"Flanker"	"Cong"	"N.S"	"F7.8"
"425"	1	1	22	5	1	0.575582	4	"Flanker"	"Incong"	"N.S"	"F7.8"
"426"	1	1	22	6	1	0.431828	4	"Flanker"	"Incong"	"E.W"	"F7.8"
"427"	1	1	22	7	1	0.391661	4	"Flanker"	"Cong"	"E.W"	"F7.8"
"428"	1	1	22	8	1	0.43318	4	"Flanker"	"Cong"	"E.W"	"F7.8"
"429"	1	1	22	9	1	0.411374	4	"Flanker"	"Incong"	"E.W"	"F7.8"
"430"	1	1	22	10	1	0.390063	4	"Flanker"	"Incong"	"E.W"	"F7.8"
"431"	1	1	22	11	1	0.477715	4	"Flanker"	"Incong"	"NE.SW"	"F7.8"
"432"	1	1	22	12	1	0.614919	4	"Flanker"	"Cong"	"NE.SW"	"F7.8"
"433"	1	1	22	13	1	0.448803	4	"Flanker"	"Cong"	"NE.SW"	"F7.8"
"434"	1	1	22	14	1	0.458864	4	"Flanker"	"Cong"	"NE.SW"	"F7.8"
"435"	1	1	22	15	1	0.62832	4	"Flanker"	"Incong"	"NE.SW"	"F7.8"
"436"	1	1	22	16	1	0.407441	3	"Flanker"	"Incong"	"NW.SE"	"F7.8"
"437"	1	1	22	17	1	0.449124	3	"Flanker"	"Cong"	"NW.SE"	"F7.8"
"438"	1	1	22	18	1	0.443916	3	"Flanker"	"Cong"	"NW.SE"	"F7.8"
"439"	1	1	22	19	1	0.324702	3	"Flanker"	"Cong"	"NW.SE"	"F7.8"
"440"	1	1	22	20	1	0.366111	3	"Flanker"	"Incong"	"NW.SE"	"F7.8"
"441"	1	1	23	1	1	0.525257	6	"Flanker"	"Incong"	"E.W"	"ATL"
"442"	1	1	23	2	1	0.647261	6	"Flanker"	"Cong"	"E.W"	"ATL"
"443"	1	1	23	3	1	0.529452	6	"Flanker"	"Incong"	"E.W"	"ATL"
"444"	1	1	23	4	1	0.587178	6	"Flanker"	"Incong"	"E.W"	"ATL"
"445"	1	1	23	5	1	0.580865	6	"Flanker"	"Cong"	"E.W"	"ATL"
"446"	1	1	23	6	1	0.532559	5	"Flanker"	"Incong"	"NE.SW"	"ATL"
"447"	1	1	23	7	1	0.513662	5	"Flanker"	"Cong"	"NE.SW"	"ATL"
"448"	1	1	23	8	1	0.491398	5	"Flanker"	"Cong"	"NE.SW"	"ATL"
"449"	1	1	23	9	1	0.537196	5	"Flanker"	"Incong"	"NE.SW"	"ATL"
"450"	1	1	23	10	1	0.623393	5	"Flanker"	"Cong"	"NE.SW"	"ATL"
"451"	1	1	23	11	1	0.437594	5	"Flanker"	"Incong"	"NW.SE"	"ATL"
"452"	1	1	23	12	1	0.463231	5	"Flanker"	"Cong"	"NW.SE"	"ATL"
"453"	1	1	23	13	1	0.441121	5	"Flanker"	"Incong"	"NW.SE"	"ATL"
"454"	1	1	23	14	1	0.515218	5	"Flanker"	"Cong"	"NW.SE"	"ATL"
"455"	1	1	23	15	1	0.588574	5	"Flanker"	"Cong"	"NW.SE"	"ATL"
"456"	1	1	23	16	1	0.419901	4	"Flanker"	"Incong"	"N.S"	"ATL"
"457"	1	1	23	17	1	0.4137	4	"Flanker"	"Incong"	"N.S"	"ATL"
"458"	1	1	23	18	1	0.439629	4	"Flanker"	"Cong"	"N.S"	"ATL"
"459"	1	1	23	19	1	0.608782	4	"Flanker"	"Incong"	"N.S"	"ATL"
"460"	1	1	23	20	1	0.586613	4	"Flanker"	"Cong"	"N.S"	"ATL"
"461"	1	1	24	1	1	0.510617	1	"Flanker"	"Incong"	"E.W"	"O1.2"
"462"	1	1	24	2	1	0.392306	1	"Flanker"	"Cong"	"E.W"	"O1.2"
"463"	1	1	24	3	1	0.370486	1	"Flanker"	"Cong"	"E.W"	"O1.2"
"464"	1	1	24	4	1	0.396448	1	"Flanker"	"Incong"	"E.W"	"O1.2"
"465"	1	1	24	5	1	0.421948	1	"Flanker"	"Cong"	"E.W"	"O1.2"
"466"	1	1	24	6	1	0.402186	1	"Flanker"	"Cong"	"NW.SE"	"O1.2"
"467"	1	1	24	7	1	0.396337	1	"Flanker"	"Cong"	"NW.SE"	"O1.2"
"468"	1	1	24	8	1	0.374229	1	"Flanker"	"Incong"	"NW.SE"	"O1.2"
"469"	1	1	24	9	1	0.496225	1	"Flanker"	"Cong"	"NW.SE"	"O1.2"
"470"	1	1	24	10	1	0.84172	1	"Flanker"	"Incong"	"NW.SE"	"O1.2"
"471"	1	1	24	11	1	0.512954	1	"Flanker"	"Incong"	"NE.SW"	"O1.2"
"472"	1	1	24	12	1	0.394524	1	"Flanker"	"Incong"	"NE.SW"	"O1.2"
"473"	1	1	24	13	1	0.340396	1	"Flanker"	"Cong"	"NE.SW"	"O1.2"
"474"	1	1	24	14	1	0.350087	1	"Flanker"	"Incong"	"NE.SW"	"O1.2"
"475"	1	1	24	15	1	0.408089	1	"Flanker"	"Cong"	"NE.SW"	"O1.2"
"476"	1	1	24	16	1	0.416716	1	"Flanker"	"Incong"	"N.S"	"O1.2"
"477"	1	1	24	17	1	0.393987	1	"Flanker"	"Incong"	"N.S"	"O1.2"
"478"	1	1	24	18	1	0.436276	1	"Flanker"	"Incong"	"N.S"	"O1.2"
"479"	1	1	24	19	1	0.413621	1	"Flanker"	"Cong"	"N.S"	"O1.2"
"480"	1	1	24	20	1	0.377371	1	"Flanker"	"Cong"	"N.S"	"O1.2"
"481"	2	2	1	1	1	0.58162	8	"Flanker"	"Cong"	"N.S"	"LatOc"
"482"	2	2	1	1	0	0.413328	2	"Flanker"	"Incong"	"E.W"	"FC1.2"
"483"	2	2	1	2	1	0.429377	2	"Flanker"	"Cong"	"E.W"	"FC1.2"
"484"	2	2	1	2	1	0.511018	8	"Flanker"	"Cong"	"N.S"	"LatOc"
"485"	2	2	1	3	1	0.464375	2	"Flanker"	"Cong"	"E.W"	"FC1.2"
"486"	2	2	1	3	1	0.535696	8	"Flanker"	"Incong"	"N.S"	"LatOc"
"487"	2	2	1	4	1	0.421707	2	"Flanker"	"Incong"	"E.W"	"FC1.2"
"488"	2	2	1	4	1	0.430786	8	"Flanker"	"Incong"	"N.S"	"LatOc"
"489"	2	2	1	5	0	0.370963	2	"Flanker"	"Incong"	"E.W"	"FC1.2"
"490"	2	2	1	5	1	0.568536	8	"Flanker"	"Incong"	"N.S"	"LatOc"
"491"	2	2	1	6	1	0.54905	6	"Flanker"	"Cong"	"N.S"	"FC1.2"
"492"	2	2	1	6	1	0.398677	8	"Flanker"	"Cong"	"NE.SW"	"LatOc"
"493"	2	2	1	7	1	0.431465	8	"Flanker"	"Cong"	"NE.SW"	"LatOc"
"494"	2	2	1	7	1	0.538658	6	"Flanker"	"Incong"	"N.S"	"FC1.2"
"495"	2	2	1	8	1	0.587062	8	"Flanker"	"Incong"	"NE.SW"	"LatOc"
"496"	2	2	1	8	1	0.45376	6	"Flanker"	"Incong"	"N.S"	"FC1.2"
"497"	2	2	1	9	1	0.432975	6	"Flanker"	"Incong"	"N.S"	"FC1.2"
"498"	2	2	1	9	1	0.403628	8	"Flanker"	"Incong"	"NE.SW"	"LatOc"
"499"	2	2	1	10	1	0.385662	8	"Flanker"	"Cong"	"NE.SW"	"LatOc"
"500"	2	2	1	10	1	0.424313	6	"Flanker"	"Cong"	"N.S"	"FC1.2"
"501"	2	2	1	11	1	0.399784	4	"Flanker"	"Cong"	"NW.SE"	"FC1.2"
"502"	2	2	1	11	1	0.54875	7	"Flanker"	"Incong"	"NW.SE"	"LatOc"
"503"	2	2	1	12	1	0.720011	4	"Flanker"	"Incong"	"NW.SE"	"FC1.2"
"504"	2	2	1	12	1	0.539905	7	"Flanker"	"Incong"	"NW.SE"	"LatOc"
"505"	2	2	1	13	1	0.440245	7	"Flanker"	"Cong"	"NW.SE"	"LatOc"
"506"	2	2	1	13	1	0.514945	4	"Flanker"	"Cong"	"NW.SE"	"FC1.2"
"507"	2	2	1	14	1	0.468641	7	"Flanker"	"Incong"	"NW.SE"	"LatOc"
"508"	2	2	1	14	1	0.51613	4	"Flanker"	"Incong"	"NW.SE"	"FC1.2"
"509"	2	2	1	15	1	0.4236	4	"Flanker"	"Cong"	"NW.SE"	"FC1.2"
"510"	2	2	1	15	1	0.531705	7	"Flanker"	"Cong"	"NW.SE"	"LatOc"
"511"	2	2	1	16	1	0.532645	6	"Flanker"	"Incong"	"E.W"	"LatOc"
"512"	2	2	1	16	1	0.511117	6	"Flanker"	"Incong"	"NE.SW"	"FC1.2"
"513"	2	2	1	17	1	0.475249	6	"Flanker"	"Cong"	"NE.SW"	"FC1.2"
"514"	2	2	1	17	1	0.440995	6	"Flanker"	"Incong"	"E.W"	"LatOc"
"515"	2	2	1	18	1	0.63115	6	"Flanker"	"Cong"	"NE.SW"	"FC1.2"
"516"	2	2	1	18	1	0.43915	6	"Flanker"	"Cong"	"E.W"	"LatOc"
"517"	2	2	1	19	1	0.403628	6	"Flanker"	"Cong"	"E.W"	"LatOc"
"518"	2	2	1	19	1	0.422069	6	"Flanker"	"Incong"	"NE.SW"	"FC1.2"
"519"	2	2	1	20	1	0.364455	6	"Flanker"	"Cong"	"NE.SW"	"FC1.2"
"520"	2	2	1	20	1	0.363893	6	"Flanker"	"Cong"	"E.W"	"LatOc"
"521"	2	2	2	1	1	0.498721	2	"Flanker"	"Cong"	"E.W"	"CZ"
"522"	2	2	2	2	1	0.450559	2	"Flanker"	"Incong"	"E.W"	"CZ"
"523"	2	2	2	3	1	0.413282	2	"Flanker"	"Incong"	"E.W"	"CZ"
"524"	2	2	2	4	1	0.442175	2	"Flanker"	"Incong"	"E.W"	"CZ"
"525"	2	2	2	5	1	0.403747	2	"Flanker"	"Cong"	"E.W"	"CZ"
"526"	2	2	2	6	1	0.434067	2	"Flanker"	"Cong"	"NW.SE"	"CZ"
"527"	2	2	2	7	1	0.42976	2	"Flanker"	"Incong"	"NW.SE"	"CZ"
"528"	2	2	2	8	1	0.395339	2	"Flanker"	"Cong"	"NW.SE"	"CZ"
"529"	2	2	2	9	1	0.394822	2	"Flanker"	"Cong"	"NW.SE"	"CZ"
"530"	2	2	2	10	0	0.33037	2	"Flanker"	"Incong"	"NW.SE"	"CZ"
"531"	2	2	2	11	1	0.406371	2	"Flanker"	"Incong"	"NE.SW"	"CZ"
"532"	2	2	2	12	1	0.320176	2	"Flanker"	"Cong"	"NE.SW"	"CZ"
"533"	2	2	2	13	1	0.346998	2	"Flanker"	"Cong"	"NE.SW"	"CZ"
"534"	2	2	2	14	1	0.34268	2	"Flanker"	"Cong"	"NE.SW"	"CZ"
"535"	2	2	2	15	1	0.368091	2	"Flanker"	"Incong"	"NE.SW"	"CZ"
"536"	2	2	2	16	1	0.399867	2	"Flanker"	"Cong"	"N.S"	"CZ"
"537"	2	2	2	17	1	0.363455	2	"Flanker"	"Incong"	"N.S"	"CZ"
"538"	2	2	2	18	0	0.391152	2	"Flanker"	"Incong"	"N.S"	"CZ"
"539"	2	2	2	19	1	0.405536	2	"Flanker"	"Incong"	"N.S"	"CZ"
"540"	2	2	2	20	1	0.488379	2	"Flanker"	"Cong"	"N.S"	"CZ"
"541"	2	2	3	1	1	0.335214	2	"Flanker"	"Cong"	"N.S"	"CP1.2"
"542"	2	2	3	2	1	0.320475	2	"Flanker"	"Cong"	"N.S"	"CP1.2"
"543"	2	2	3	3	1	0.31747	2	"Flanker"	"Cong"	"N.S"	"CP1.2"
"544"	2	2	3	4	1	0.345064	2	"Flanker"	"Incong"	"N.S"	"CP1.2"
"545"	2	2	3	5	1	0.419716	2	"Flanker"	"Incong"	"N.S"	"CP1.2"
"546"	2	2	3	6	1	0.38566	2	"Flanker"	"Incong"	"NE.SW"	"CP1.2"
"547"	2	2	3	7	0	0.383448	2	"Flanker"	"Incong"	"NE.SW"	"CP1.2"
"548"	2	2	3	8	1	0.340113	2	"Flanker"	"Cong"	"NE.SW"	"CP1.2"
"549"	2	2	3	9	1	0.517925	2	"Flanker"	"Incong"	"NE.SW"	"CP1.2"
"550"	2	2	3	10	1	0.385223	2	"Flanker"	"Cong"	"NE.SW"	"CP1.2"
"551"	2	2	3	11	1	0.45063	2	"Flanker"	"Incong"	"NW.SE"	"CP1.2"
"552"	2	2	3	12	1	0.295445	2	"Flanker"	"Cong"	"NW.SE"	"CP1.2"
"553"	2	2	3	13	1	0.352356	2	"Flanker"	"Cong"	"NW.SE"	"CP1.2"
"554"	2	2	3	14	1	0.397652	2	"Flanker"	"Incong"	"NW.SE"	"CP1.2"
"555"	2	2	3	15	0	0.296812	2	"Flanker"	"Incong"	"NW.SE"	"CP1.2"
"556"	2	2	3	16	1	0.343321	2	"Flanker"	"Cong"	"E.W"	"CP1.2"
"557"	2	2	3	17	1	0.413063	2	"Flanker"	"Incong"	"E.W"	"CP1.2"
"558"	2	2	3	18	1	0.347834	2	"Flanker"	"Cong"	"E.W"	"CP1.2"
"559"	2	2	3	19	1	0.310419	2	"Flanker"	"Incong"	"E.W"	"CP1.2"
"560"	2	2	3	20	1	0.385291	2	"Flanker"	"Cong"	"E.W"	"CP1.2"
"561"	2	2	4	1	1	0.344076	2	"Flanker"	"Cong"	"N.S"	"P3.4"
"562"	2	2	4	2	1	0.512823	2	"Flanker"	"Cong"	"N.S"	"P3.4"
"563"	2	2	4	3	1	0.389119	2	"Flanker"	"Incong"	"N.S"	"P3.4"
"564"	2	2	4	4	1	0.381213	2	"Flanker"	"Incong"	"N.S"	"P3.4"
"565"	2	2	4	5	0	0.301608	2	"Flanker"	"Incong"	"N.S"	"P3.4"
"566"	2	2	4	6	1	0.430036	2	"Flanker"	"Incong"	"NE.SW"	"P3.4"
"567"	2	2	4	7	0	0.341233	2	"Flanker"	"Incong"	"NE.SW"	"P3.4"
"568"	2	2	4	8	0	0.359299	2	"Flanker"	"Incong"	"NE.SW"	"P3.4"
"569"	2	2	4	9	1	0.393706	2	"Flanker"	"Cong"	"NE.SW"	"P3.4"
"570"	2	2	4	10	1	0.351916	2	"Flanker"	"Cong"	"NE.SW"	"P3.4"
"571"	2	2	4	11	1	0.462166	2	"Flanker"	"Incong"	"E.W"	"P3.4"
"572"	2	2	4	12	1	0.321652	2	"Flanker"	"Cong"	"E.W"	"P3.4"
"573"	2	2	4	13	0	0.340192	2	"Flanker"	"Incong"	"E.W"	"P3.4"
"574"	2	2	4	14	1	0.390176	2	"Flanker"	"Cong"	"E.W"	"P3.4"
"575"	2	2	4	15	1	0.360373	2	"Flanker"	"Cong"	"E.W"	"P3.4"
"576"	2	2	4	16	1	0.415939	2	"Flanker"	"Cong"	"NW.SE"	"P3.4"
"577"	2	2	4	17	0	0.298112	2	"Flanker"	"Incong"	"NW.SE"	"P3.4"
"578"	2	2	4	18	1	0.462643	2	"Flanker"	"Incong"	"NW.SE"	"P3.4"
"579"	2	2	4	19	1	0.393519	2	"Flanker"	"Cong"	"NW.SE"	"P3.4"
"580"	2	2	4	20	1	0.346277	2	"Flanker"	"Cong"	"NW.SE"	"P3.4"
"581"	2	2	5	1	1	0.441568	3	"Flanker"	"Incong"	"N.S"	"C3.4"
"582"	2	2	5	2	1	0.431925	3	"Flanker"	"Cong"	"N.S"	"C3.4"
"583"	2	2	5	3	1	0.564114	3	"Flanker"	"Incong"	"N.S"	"C3.4"
"584"	2	2	5	4	1	0.579552	3	"Flanker"	"Cong"	"N.S"	"C3.4"
"585"	2	2	5	5	1	0.366266	3	"Flanker"	"Cong"	"N.S"	"C3.4"
"586"	2	2	5	6	1	0.421568	3	"Flanker"	"Incong"	"NW.SE"	"C3.4"
"587"	2	2	5	7	1	0.449712	3	"Flanker"	"Cong"	"NW.SE"	"C3.4"
"588"	2	2	5	8	1	0.460098	3	"Flanker"	"Cong"	"NW.SE"	"C3.4"
"589"	2	2	5	9	1	0.495302	3	"Flanker"	"Incong"	"NW.SE"	"C3.4"
"590"	2	2	5	10	1	0.580459	3	"Flanker"	"Incong"	"NW.SE"	"C3.4"
"591"	2	2	5	11	1	0.428205	2	"Flanker"	"Incong"	"E.W"	"C3.4"
"592"	2	2	5	12	1	0.506665	2	"Flanker"	"Cong"	"E.W"	"C3.4"
"593"	2	2	5	13	1	0.523245	2	"Flanker"	"Cong"	"E.W"	"C3.4"
"594"	2	2	5	14	1	0.524869	2	"Flanker"	"Incong"	"E.W"	"C3.4"
"595"	2	2	5	15	1	0.558265	2	"Flanker"	"Cong"	"E.W"	"C3.4"
"596"	2	2	5	16	1	0.370706	3	"Flanker"	"Cong"	"NE.SW"	"C3.4"
"597"	2	2	5	17	1	0.729091	3	"Flanker"	"Incong"	"NE.SW"	"C3.4"
"598"	2	2	5	18	1	0.547004	3	"Flanker"	"Incong"	"NE.SW"	"C3.4"
"599"	2	2	5	19	1	0.376117	3	"Flanker"	"Incong"	"NE.SW"	"C3.4"
"600"	2	2	5	20	1	0.334881	3	"Flanker"	"Cong"	"NE.SW"	"C3.4"
"601"	2	2	6	1	1	0.411009	6	"Flanker"	"Incong"	"N.S"	"TPJ"
"602"	2	2	6	2	1	0.440523	6	"Flanker"	"Incong"	"N.S"	"TPJ"
"603"	2	2	6	3	1	0.553902	6	"Flanker"	"Cong"	"N.S"	"TPJ"
"604"	2	2	6	4	1	0.615189	6	"Flanker"	"Cong"	"N.S"	"TPJ"
"605"	2	2	6	5	1	0.453531	6	"Flanker"	"Cong"	"N.S"	"TPJ"
"606"	2	2	6	6	1	0.480959	6	"Flanker"	"Incong"	"NE.SW"	"TPJ"
"607"	2	2	6	7	1	0.354228	6	"Flanker"	"Cong"	"NE.SW"	"TPJ"
"608"	2	2	6	8	1	0.616595	6	"Flanker"	"Incong"	"NE.SW"	"TPJ"
"609"	2	2	6	9	1	0.825877	6	"Flanker"	"Cong"	"NE.SW"	"TPJ"
"610"	2	2	6	10	1	0.474315	6	"Flanker"	"Cong"	"NE.SW"	"TPJ"
"611"	2	2	6	11	1	0.454683	3	"Flanker"	"Incong"	"NW.SE"	"TPJ"
"612"	2	2	6	12	1	0.504354	3	"Flanker"	"Incong"	"NW.SE"	"TPJ"
"613"	2	2	6	13	1	0.60675	3	"Flanker"	"Incong"	"NW.SE"	"TPJ"
"614"	2	2	6	14	1	0.505523	3	"Flanker"	"Cong"	"NW.SE"	"TPJ"
"615"	2	2	6	15	1	0.434958	3	"Flanker"	"Cong"	"NW.SE"	"TPJ"
"616"	2	2	6	16	1	0.469306	6	"Flanker"	"Incong"	"E.W"	"TPJ"
"617"	2	2	6	17	1	0.601911	6	"Flanker"	"Cong"	"E.W"	"TPJ"
"618"	2	2	6	18	1	0.513611	6	"Flanker"	"Cong"	"E.W"	"TPJ"
"619"	2	2	6	19	1	0.511304	6	"Flanker"	"Incong"	"E.W"	"TPJ"
"620"	2	2	6	20	1	0.37942	6	"Flanker"	"Incong"	"E.W"	"TPJ"
"621"	2	2	7	1	1	0.398429	4	"Flanker"	"Cong"	"N.S"	"F7.8"
"622"	2	2	7	2	1	0.529016	4	"Flanker"	"Incong"	"N.S"	"F7.8"
"623"	2	2	7	3	1	0.53919	4	"Flanker"	"Incong"	"N.S"	"F7.8"
"624"	2	2	7	4	1	0.490589	4	"Flanker"	"Incong"	"N.S"	"F7.8"
"625"	2	2	7	5	1	0.433241	4	"Flanker"	"Cong"	"N.S"	"F7.8"
"626"	2	2	7	6	1	0.454172	4	"Flanker"	"Cong"	"NW.SE"	"F7.8"
"627"	2	2	7	7	1	0.482522	4	"Flanker"	"Incong"	"NW.SE"	"F7.8"
"628"	2	2	7	8	1	0.490173	4	"Flanker"	"Cong"	"NW.SE"	"F7.8"
"629"	2	2	7	9	1	0.390265	4	"Flanker"	"Cong"	"NW.SE"	"F7.8"
"630"	2	2	7	10	1	0.475879	4	"Flanker"	"Incong"	"NW.SE"	"F7.8"
"631"	2	2	7	11	1	0.436676	7	"Flanker"	"Incong"	"E.W"	"F7.8"
"632"	2	2	7	12	1	0.42913	7	"Flanker"	"Incong"	"E.W"	"F7.8"
"633"	2	2	7	13	1	0.366426	7	"Flanker"	"Cong"	"E.W"	"F7.8"
"634"	2	2	7	14	1	0.304212	7	"Flanker"	"Cong"	"E.W"	"F7.8"
"635"	2	2	7	15	1	0.365566	7	"Flanker"	"Incong"	"E.W"	"F7.8"
"636"	2	2	7	16	1	0.438003	7	"Flanker"	"Cong"	"NE.SW"	"F7.8"
"637"	2	2	7	17	1	0.358369	7	"Flanker"	"Cong"	"NE.SW"	"F7.8"
"638"	2	2	7	18	1	0.381487	7	"Flanker"	"Cong"	"NE.SW"	"F7.8"
"639"	2	2	7	19	0	0.594107	7	"Flanker"	"Incong"	"NE.SW"	"F7.8"
"640"	2	2	7	20	1	0.790092	7	"Flanker"	"Incong"	"NE.SW"	"F7.8"
"641"	2	2	8	1	1	0.349747	2	"Flanker"	"Cong"	"E.W"	"AF"
"642"	2	2	8	2	1	0.390275	2	"Flanker"	"Incong"	"E.W"	"AF"
"643"	2	2	8	3	1	0.414985	2	"Flanker"	"Incong"	"E.W"	"AF"
"644"	2	2	8	4	1	0.382218	2	"Flanker"	"Cong"	"E.W"	"AF"
"645"	2	2	8	5	1	0.3054	2	"Flanker"	"Cong"	"E.W"	"AF"
"646"	2	2	8	6	1	0.491983	2	"Flanker"	"Incong"	"NW.SE"	"AF"
"647"	2	2	8	7	1	0.487429	2	"Flanker"	"Incong"	"NW.SE"	"AF"
"648"	2	2	8	8	1	0.40948	2	"Flanker"	"Cong"	"NW.SE"	"AF"
"649"	2	2	8	9	1	0.561847	2	"Flanker"	"Cong"	"NW.SE"	"AF"
"650"	2	2	8	10	1	0.508074	2	"Flanker"	"Incong"	"NW.SE"	"AF"
"651"	2	2	8	11	1	0.570397	2	"Flanker"	"Incong"	"N.S"	"AF"
"652"	2	2	8	12	1	0.365445	2	"Flanker"	"Incong"	"N.S"	"AF"
"653"	2	2	8	13	0	0.445618	2	"Flanker"	"Incong"	"N.S"	"AF"
"654"	2	2	8	14	1	0.407419	2	"Flanker"	"Cong"	"N.S"	"AF"
"655"	2	2	8	15	1	0.317856	2	"Flanker"	"Cong"	"N.S"	"AF"
"656"	2	2	8	16	1	0.36011	3	"Flanker"	"Cong"	"NE.SW"	"AF"
"657"	2	2	8	17	1	0.405774	3	"Flanker"	"Cong"	"NE.SW"	"AF"
"658"	2	2	8	18	1	0.332872	3	"Flanker"	"Cong"	"NE.SW"	"AF"
"659"	2	2	8	19	0	0.300151	3	"Flanker"	"Incong"	"NE.SW"	"AF"
"660"	2	2	8	20	1	0.413787	3	"Flanker"	"Incong"	"NE.SW"	"AF"
"661"	2	2	9	1	1	0.482772	7	"Flanker"	"Incong"	"N.S"	"T7.8"
"662"	2	2	9	2	1	0.405116	7	"Flanker"	"Cong"	"N.S"	"T7.8"
"663"	2	2	9	3	1	0.482732	7	"Flanker"	"Cong"	"N.S"	"T7.8"
"664"	2	2	9	4	1	0.525793	7	"Flanker"	"Incong"	"N.S"	"T7.8"
"665"	2	2	9	5	1	0.634396	7	"Flanker"	"Incong"	"N.S"	"T7.8"
"666"	2	2	9	6	1	0.401081	4	"Flanker"	"Cong"	"NE.SW"	"T7.8"
"667"	2	2	9	7	1	0.561097	4	"Flanker"	"Incong"	"NE.SW"	"T7.8"
"668"	2	2	9	8	1	0.762206	4	"Flanker"	"Incong"	"NE.SW"	"T7.8"
"669"	2	2	9	9	0	0.743309	4	"Flanker"	"Cong"	"NE.SW"	"T7.8"
"670"	2	2	9	10	1	0.704227	4	"Flanker"	"Incong"	"NE.SW"	"T7.8"
"671"	2	2	9	11	1	0.41437	4	"Flanker"	"Incong"	"NW.SE"	"T7.8"
"672"	2	2	9	12	1	0.590781	4	"Flanker"	"Cong"	"NW.SE"	"T7.8"
"673"	2	2	9	13	1	0.568492	4	"Flanker"	"Cong"	"NW.SE"	"T7.8"
"674"	2	2	9	14	1	0.544776	4	"Flanker"	"Cong"	"NW.SE"	"T7.8"
"675"	2	2	9	15	1	0.577279	4	"Flanker"	"Incong"	"NW.SE"	"T7.8"
"676"	2	2	9	16	1	0.456037	4	"Flanker"	"Incong"	"E.W"	"T7.8"
"677"	2	2	9	17	1	0.387788	4	"Flanker"	"Cong"	"E.W"	"T7.8"
"678"	2	2	9	18	1	0.421207	4	"Flanker"	"Incong"	"E.W"	"T7.8"
"679"	2	2	9	19	1	0.629623	4	"Flanker"	"Cong"	"E.W"	"T7.8"
"680"	2	2	9	20	1	0.752216	4	"Flanker"	"Cong"	"E.W"	"T7.8"
"681"	2	2	10	1	1	0.492956	2	"Flanker"	"Incong"	"N.S"	"O1.2"
"682"	2	2	10	2	1	0.363468	2	"Flanker"	"Cong"	"N.S"	"O1.2"
"683"	2	2	10	3	1	0.336578	2	"Flanker"	"Incong"	"N.S"	"O1.2"
"684"	2	2	10	4	1	0.387813	2	"Flanker"	"Incong"	"N.S"	"O1.2"
"685"	2	2	10	5	1	0.34858	2	"Flanker"	"Cong"	"N.S"	"O1.2"
"686"	2	2	10	6	1	0.300125	2	"Flanker"	"Cong"	"NE.SW"	"O1.2"
"687"	2	2	10	7	1	0.405613	2	"Flanker"	"Incong"	"NE.SW"	"O1.2"
"688"	2	2	10	8	1	0.319653	2	"Flanker"	"Cong"	"NE.SW"	"O1.2"
"689"	2	2	10	9	1	0.309757	2	"Flanker"	"Incong"	"NE.SW"	"O1.2"
"690"	2	2	10	10	0	0.347755	2	"Flanker"	"Incong"	"NE.SW"	"O1.2"
"691"	2	2	10	11	1	0.565611	2	"Flanker"	"Incong"	"E.W"	"O1.2"
"692"	2	2	10	12	1	0.341847	2	"Flanker"	"Cong"	"E.W"	"O1.2"
"693"	2	2	10	13	1	0.373696	2	"Flanker"	"Incong"	"E.W"	"O1.2"
"694"	2	2	10	14	1	0.326039	2	"Flanker"	"Cong"	"E.W"	"O1.2"
"695"	2	2	10	15	1	0.292561	2	"Flanker"	"Cong"	"E.W"	"O1.2"
"696"	2	2	10	16	1	0.418994	2	"Flanker"	"Incong"	"NW.SE"	"O1.2"
"697"	2	2	10	17	1	0.393854	2	"Flanker"	"Incong"	"NW.SE"	"O1.2"
"698"	2	2	10	18	1	0.34288	2	"Flanker"	"Cong"	"NW.SE"	"O1.2"
"699"	2	2	10	19	1	0.309849	2	"Flanker"	"Cong"	"NW.SE"	"O1.2"
"700"	2	2	10	20	1	0.269778	2	"Flanker"	"Cong"	"NW.SE"	"O1.2"
"701"	2	2	11	1	1	0.415511	2	"Flanker"	"Cong"	"NE.SW"	"OZ"
"702"	2	2	11	2	1	0.282811	2	"Flanker"	"Cong"	"NE.SW"	"OZ"
"703"	2	2	11	3	1	0.277228	2	"Flanker"	"Cong"	"NE.SW"	"OZ"
"704"	2	2	11	4	0	0.349043	2	"Flanker"	"Incong"	"NE.SW"	"OZ"
"705"	2	2	11	5	1	0.405004	2	"Flanker"	"Incong"	"NE.SW"	"OZ"
"706"	2	2	11	6	1	0.33795	2	"Flanker"	"Cong"	"NW.SE"	"OZ"
"707"	2	2	11	7	1	0.311448	2	"Flanker"	"Cong"	"NW.SE"	"OZ"
"708"	2	2	11	8	1	0.352618	2	"Flanker"	"Cong"	"NW.SE"	"OZ"
"709"	2	2	11	9	1	0.301869	2	"Flanker"	"Incong"	"NW.SE"	"OZ"
"710"	2	2	11	10	1	0.357945	2	"Flanker"	"Incong"	"NW.SE"	"OZ"
"711"	2	2	11	11	1	0.404127	2	"Flanker"	"Incong"	"N.S"	"OZ"
"712"	2	2	11	12	1	0.401069	2	"Flanker"	"Incong"	"N.S"	"OZ"
"713"	2	2	11	13	1	0.347578	2	"Flanker"	"Incong"	"N.S"	"OZ"
"714"	2	2	11	14	1	0.290885	2	"Flanker"	"Cong"	"N.S"	"OZ"
"715"	2	2	11	15	1	0.352225	2	"Flanker"	"Cong"	"N.S"	"OZ"
"716"	2	2	11	16	0	0.444824	2	"Flanker"	"Incong"	"E.W"	"OZ"
"717"	2	2	11	17	1	0.5678	2	"Flanker"	"Incong"	"E.W"	"OZ"
"718"	2	2	11	18	1	0.349767	2	"Flanker"	"Cong"	"E.W"	"OZ"
"719"	2	2	11	19	1	0.451114	2	"Flanker"	"Incong"	"E.W"	"OZ"
"720"	2	2	11	20	1	0.37449	2	"Flanker"	"Cong"	"E.W"	"OZ"
"721"	2	2	12	1	1	0.352279	2	"Flanker"	"Cong"	"NE.SW"	"CP5.6"
"722"	2	2	12	2	1	0.312243	2	"Flanker"	"Cong"	"NE.SW"	"CP5.6"
"723"	2	2	12	3	0	0.332234	2	"Flanker"	"Incong"	"NE.SW"	"CP5.6"
"724"	2	2	12	4	1	0.404484	2	"Flanker"	"Incong"	"NE.SW"	"CP5.6"
"725"	2	2	12	5	1	0.370187	2	"Flanker"	"Incong"	"NE.SW"	"CP5.6"
"726"	2	2	12	6	1	0.449704	4	"Flanker"	"Incong"	"NW.SE"	"CP5.6"
"727"	2	2	12	7	1	0.406657	4	"Flanker"	"Cong"	"NW.SE"	"CP5.6"
"728"	2	2	12	8	1	0.490035	4	"Flanker"	"Cong"	"NW.SE"	"CP5.6"
"729"	2	2	12	9	1	0.623334	4	"Flanker"	"Cong"	"NW.SE"	"CP5.6"
"730"	2	2	12	10	1	0.478336	4	"Flanker"	"Incong"	"NW.SE"	"CP5.6"
"731"	2	2	12	11	1	0.372523	3	"Flanker"	"Cong"	"N.S"	"CP5.6"
"732"	2	2	12	12	1	0.368623	3	"Flanker"	"Incong"	"N.S"	"CP5.6"
"733"	2	2	12	13	1	0.316157	3	"Flanker"	"Cong"	"N.S"	"CP5.6"
"734"	2	2	12	14	1	0.316056	3	"Flanker"	"Cong"	"N.S"	"CP5.6"
"735"	2	2	12	15	1	0.363569	3	"Flanker"	"Incong"	"N.S"	"CP5.6"
"736"	2	2	12	16	0	0.382904	3	"Flanker"	"Incong"	"E.W"	"CP5.6"
"737"	2	2	12	17	1	0.431815	3	"Flanker"	"Incong"	"E.W"	"CP5.6"
"738"	2	2	12	18	1	0.330442	3	"Flanker"	"Cong"	"E.W"	"CP5.6"
"739"	2	2	12	19	1	0.482573	3	"Flanker"	"Incong"	"E.W"	"CP5.6"
"740"	2	2	12	20	1	0.529984	3	"Flanker"	"Cong"	"E.W"	"CP5.6"
"741"	2	2	13	1	1	0.566981	10	"Flanker"	"Cong"	"N.S"	"ATL"
"742"	2	2	13	2	1	1.269995	10	"Flanker"	"Cong"	"N.S"	"ATL"
"743"	2	2	13	3	1	0.561892	10	"Flanker"	"Incong"	"N.S"	"ATL"
"744"	2	2	13	4	1	0.390549	10	"Flanker"	"Cong"	"N.S"	"ATL"
"745"	2	2	13	5	1	0.526557	10	"Flanker"	"Incong"	"N.S"	"ATL"
"746"	2	2	13	6	1	0.499103	9	"Flanker"	"Incong"	"NW.SE"	"ATL"
"747"	2	2	13	7	1	0.509169	9	"Flanker"	"Incong"	"NW.SE"	"ATL"
"748"	2	2	13	8	1	0.591453	9	"Flanker"	"Cong"	"NW.SE"	"ATL"
"749"	2	2	13	9	0	0.561829	9	"Flanker"	"Incong"	"NW.SE"	"ATL"
"750"	2	2	13	10	1	0.587796	9	"Flanker"	"Cong"	"NW.SE"	"ATL"
"751"	2	2	13	11	1	0.503064	6	"Flanker"	"Cong"	"NE.SW"	"ATL"
"752"	2	2	13	12	1	0.340343	6	"Flanker"	"Cong"	"NE.SW"	"ATL"
"753"	2	2	13	13	1	0.469882	6	"Flanker"	"Incong"	"NE.SW"	"ATL"
"754"	2	2	13	14	1	0.529747	6	"Flanker"	"Incong"	"NE.SW"	"ATL"
"755"	2	2	13	15	1	0.355463	6	"Flanker"	"Incong"	"NE.SW"	"ATL"
"756"	2	2	13	16	1	0.408548	5	"Flanker"	"Cong"	"E.W"	"ATL"
"757"	2	2	13	17	1	0.48635	5	"Flanker"	"Incong"	"E.W"	"ATL"
"758"	2	2	13	18	1	0.458723	5	"Flanker"	"Cong"	"E.W"	"ATL"
"759"	2	2	13	19	1	0.403602	5	"Flanker"	"Cong"	"E.W"	"ATL"
"760"	2	2	13	20	1	0.452102	5	"Flanker"	"Incong"	"E.W"	"ATL"
"761"	2	2	14	1	1	0.47963	2	"Flanker"	"Incong"	"NW.SE"	"F3.4"
"762"	2	2	14	2	1	0.421037	2	"Flanker"	"Cong"	"NW.SE"	"F3.4"
"763"	2	2	14	3	1	0.314353	2	"Flanker"	"Cong"	"NW.SE"	"F3.4"
"764"	2	2	14	4	1	0.347488	2	"Flanker"	"Incong"	"NW.SE"	"F3.4"
"765"	2	2	14	5	1	0.354072	2	"Flanker"	"Cong"	"NW.SE"	"F3.4"
"766"	2	2	14	6	1	0.41917	2	"Flanker"	"Cong"	"E.W"	"F3.4"
"767"	2	2	14	7	1	0.295618	2	"Flanker"	"Incong"	"E.W"	"F3.4"
"768"	2	2	14	8	1	0.339015	2	"Flanker"	"Cong"	"E.W"	"F3.4"
"769"	2	2	14	9	1	0.347826	2	"Flanker"	"Incong"	"E.W"	"F3.4"
"770"	2	2	14	10	1	0.415384	2	"Flanker"	"Incong"	"E.W"	"F3.4"
"771"	2	2	14	11	0	0.360234	2	"Flanker"	"Incong"	"NE.SW"	"F3.4"
"772"	2	2	14	12	1	0.375464	2	"Flanker"	"Incong"	"NE.SW"	"F3.4"
"773"	2	2	14	13	1	0.364445	2	"Flanker"	"Cong"	"NE.SW"	"F3.4"
"774"	2	2	14	14	0	0.358852	2	"Flanker"	"Incong"	"NE.SW"	"F3.4"
"775"	2	2	14	15	1	0.352957	2	"Flanker"	"Cong"	"NE.SW"	"F3.4"
"776"	2	2	14	16	1	0.342788	2	"Flanker"	"Cong"	"N.S"	"F3.4"
"777"	2	2	14	17	1	0.313388	2	"Flanker"	"Cong"	"N.S"	"F3.4"
"778"	2	2	14	18	1	0.426387	2	"Flanker"	"Incong"	"N.S"	"F3.4"
"779"	2	2	14	19	1	0.281399	2	"Flanker"	"Incong"	"N.S"	"F3.4"
"780"	2	2	14	20	1	0.288696	2	"Flanker"	"Cong"	"N.S"	"F3.4"
"781"	2	2	15	1	1	0.449898	3	"Flanker"	"Incong"	"NE.SW"	"P7.8"
"782"	2	2	15	2	0	0.285632	3	"Flanker"	"Incong"	"NE.SW"	"P7.8"
"783"	2	2	15	3	1	0.355354	3	"Flanker"	"Incong"	"NE.SW"	"P7.8"
"784"	2	2	15	4	1	0.453426	3	"Flanker"	"Cong"	"NE.SW"	"P7.8"
"785"	2	2	15	5	1	0.396322	3	"Flanker"	"Cong"	"NE.SW"	"P7.8"
"786"	2	2	15	6	1	0.385474	3	"Flanker"	"Cong"	"E.W"	"P7.8"
"787"	2	2	15	7	1	0.369352	3	"Flanker"	"Incong"	"E.W"	"P7.8"
"788"	2	2	15	8	1	0.432727	3	"Flanker"	"Incong"	"E.W"	"P7.8"
"789"	2	2	15	9	1	0.450933	3	"Flanker"	"Incong"	"E.W"	"P7.8"
"790"	2	2	15	10	1	0.358883	3	"Flanker"	"Cong"	"E.W"	"P7.8"
"791"	2	2	15	11	0	0.354846	3	"Flanker"	"Incong"	"NW.SE"	"P7.8"
"792"	2	2	15	12	1	0.416439	3	"Flanker"	"Cong"	"NW.SE"	"P7.8"
"793"	2	2	15	13	0	0.353935	3	"Flanker"	"Incong"	"NW.SE"	"P7.8"
"794"	2	2	15	14	1	0.347427	3	"Flanker"	"Cong"	"NW.SE"	"P7.8"
"795"	2	2	15	15	1	0.343204	3	"Flanker"	"Cong"	"NW.SE"	"P7.8"
"796"	2	2	15	16	1	0.472917	3	"Flanker"	"Incong"	"N.S"	"P7.8"
"797"	2	2	15	17	0	0.319394	3	"Flanker"	"Incong"	"N.S"	"P7.8"
"798"	2	2	15	18	1	0.415509	3	"Flanker"	"Cong"	"N.S"	"P7.8"
"799"	2	2	15	19	1	0.368036	3	"Flanker"	"Cong"	"N.S"	"P7.8"
"800"	2	2	15	20	1	0.325941	3	"Flanker"	"Cong"	"N.S"	"P7.8"
"801"	2	2	16	1	1	0.353023	2	"Flanker"	"Cong"	"NW.SE"	"PZ"
"802"	2	2	16	2	1	0.384784	2	"Flanker"	"Incong"	"NW.SE"	"PZ"
"803"	2	2	16	3	1	0.386405	2	"Flanker"	"Incong"	"NW.SE"	"PZ"
"804"	2	2	16	4	1	0.308468	2	"Flanker"	"Cong"	"NW.SE"	"PZ"
"805"	2	2	16	5	1	0.322035	2	"Flanker"	"Cong"	"NW.SE"	"PZ"
"806"	2	2	16	6	1	0.406691	2	"Flanker"	"Incong"	"N.S"	"PZ"
"807"	2	2	16	7	0	0.310898	2	"Flanker"	"Cong"	"N.S"	"PZ"
"808"	2	2	16	8	0	0.298221	2	"Flanker"	"Incong"	"N.S"	"PZ"
"809"	2	2	16	9	0	0.356911	2	"Flanker"	"Incong"	"N.S"	"PZ"
"810"	2	2	16	10	1	0.374957	2	"Flanker"	"Cong"	"N.S"	"PZ"
"811"	2	2	16	11	1	0.375896	2	"Flanker"	"Cong"	"NE.SW"	"PZ"
"812"	2	2	16	12	1	0.336623	2	"Flanker"	"Incong"	"NE.SW"	"PZ"
"813"	2	2	16	13	1	0.318494	2	"Flanker"	"Cong"	"NE.SW"	"PZ"
"814"	2	2	16	14	1	0.371102	2	"Flanker"	"Incong"	"NE.SW"	"PZ"
"815"	2	2	16	15	1	0.392612	2	"Flanker"	"Incong"	"NE.SW"	"PZ"
"816"	2	2	16	16	1	0.583129	2	"Flanker"	"Incong"	"E.W"	"PZ"
"817"	2	2	16	17	1	0.393653	2	"Flanker"	"Cong"	"E.W"	"PZ"
"818"	2	2	16	18	1	0.348195	2	"Flanker"	"Cong"	"E.W"	"PZ"
"819"	2	2	16	19	1	0.343426	2	"Flanker"	"Cong"	"E.W"	"PZ"
"820"	2	2	16	20	1	0.589466	2	"Flanker"	"Incong"	"E.W"	"PZ"
"821"	2	2	18	1	NA	0.605471	1	"Flanker"	"Cong"	"NW.SE"	"FP"
"822"	2	2	18	2	NA	2.000197	1	"Flanker"	"Cong"	"NW.SE"	"FP"
"823"	2	2	18	3	NA	0.518969	1	"Flanker"	"Incong"	"NW.SE"	"FP"
"824"	2	2	18	4	NA	0.830119	1	"Flanker"	"Cong"	"NW.SE"	"FP"
"825"	2	2	18	5	NA	0.64298	1	"Flanker"	"Incong"	"NW.SE"	"FP"
"826"	2	2	18	6	1	0.416537	3	"Flanker"	"Incong"	"N.S"	"FP"
"827"	2	2	18	7	1	0.316066	3	"Flanker"	"Cong"	"N.S"	"FP"
"828"	2	2	18	8	1	0.349412	3	"Flanker"	"Incong"	"N.S"	"FP"
"829"	2	2	18	9	1	0.373358	3	"Flanker"	"Cong"	"N.S"	"FP"
"830"	2	2	18	10	1	0.303445	3	"Flanker"	"Cong"	"N.S"	"FP"
"831"	2	2	18	11	1	0.395811	3	"Flanker"	"Incong"	"E.W"	"FP"
"832"	2	2	18	12	0	0.306816	3	"Flanker"	"Incong"	"E.W"	"FP"
"833"	2	2	18	13	1	0.326361	3	"Flanker"	"Cong"	"E.W"	"FP"
"834"	2	2	18	14	1	0.376495	3	"Flanker"	"Incong"	"E.W"	"FP"
"835"	2	2	18	15	1	0.343595	3	"Flanker"	"Cong"	"E.W"	"FP"
"836"	2	2	18	16	1	0.359512	2	"Flanker"	"Cong"	"NE.SW"	"FP"
"837"	2	2	18	17	1	0.313136	2	"Flanker"	"Incong"	"NE.SW"	"FP"
"838"	2	2	18	18	1	0.362619	2	"Flanker"	"Cong"	"NE.SW"	"FP"
"839"	2	2	18	19	1	0.386311	2	"Flanker"	"Incong"	"NE.SW"	"FP"
"840"	2	2	18	20	1	0.42695	2	"Flanker"	"Incong"	"NE.SW"	"FP"
"841"	2	2	19	1	1	0.480318	3	"Flanker"	"Cong"	"N.S"	"V5"
"842"	2	2	19	2	1	0.363334	3	"Flanker"	"Incong"	"N.S"	"V5"
"843"	2	2	19	3	1	0.423772	3	"Flanker"	"Incong"	"N.S"	"V5"
"844"	2	2	19	4	1	0.351936	3	"Flanker"	"Cong"	"N.S"	"V5"
"845"	2	2	19	5	1	0.3272	3	"Flanker"	"Incong"	"N.S"	"V5"
"846"	2	2	19	6	1	0.394789	3	"Flanker"	"Cong"	"E.W"	"V5"
"847"	2	2	19	7	1	0.423978	3	"Flanker"	"Incong"	"E.W"	"V5"
"848"	2	2	19	8	0	0.292408	3	"Flanker"	"Incong"	"E.W"	"V5"
"849"	2	2	19	9	1	0.312828	3	"Flanker"	"Cong"	"E.W"	"V5"
"850"	2	2	19	10	1	0.331463	3	"Flanker"	"Cong"	"E.W"	"V5"
"851"	2	2	19	11	1	0.467999	3	"Flanker"	"Incong"	"NW.SE"	"V5"
"852"	2	2	19	12	1	0.400871	3	"Flanker"	"Incong"	"NW.SE"	"V5"
"853"	2	2	19	13	1	0.382849	3	"Flanker"	"Cong"	"NW.SE"	"V5"
"854"	2	2	19	14	1	0.330967	3	"Flanker"	"Cong"	"NW.SE"	"V5"
"855"	2	2	19	15	0	0.30096	3	"Flanker"	"Incong"	"NW.SE"	"V5"
"856"	2	2	19	16	0	0.298995	3	"Flanker"	"Incong"	"NE.SW"	"V5"
"857"	2	2	19	17	1	0.276681	3	"Flanker"	"Cong"	"NE.SW"	"V5"
"858"	2	2	19	18	1	0.452084	3	"Flanker"	"Incong"	"NE.SW"	"V5"
"859"	2	2	19	19	1	0.304578	3	"Flanker"	"Cong"	"NE.SW"	"V5"
"860"	2	2	19	20	1	0.432947	3	"Flanker"	"Cong"	"NE.SW"	"V5"
"861"	2	2	20	1	1	0.503843	2	"Flanker"	"Cong"	"NE.SW"	"PO3.4"
"862"	2	2	20	2	1	0.339788	2	"Flanker"	"Incong"	"NE.SW"	"PO3.4"
"863"	2	2	20	3	1	0.317849	2	"Flanker"	"Cong"	"NE.SW"	"PO3.4"
"864"	2	2	20	4	0	0.36818	2	"Flanker"	"Incong"	"NE.SW"	"PO3.4"
"865"	2	2	20	5	1	0.399851	2	"Flanker"	"Cong"	"NE.SW"	"PO3.4"
"866"	2	2	20	6	1	0.451215	2	"Flanker"	"Incong"	"NW.SE"	"PO3.4"
"867"	2	2	20	7	1	0.371504	2	"Flanker"	"Incong"	"NW.SE"	"PO3.4"
"868"	2	2	20	8	1	0.379497	2	"Flanker"	"Cong"	"NW.SE"	"PO3.4"
"869"	2	2	20	9	1	0.314535	2	"Flanker"	"Cong"	"NW.SE"	"PO3.4"
"870"	2	2	20	10	1	0.465056	2	"Flanker"	"Incong"	"NW.SE"	"PO3.4"
"871"	2	2	20	11	1	0.372722	2	"Flanker"	"Cong"	"N.S"	"PO3.4"
"872"	2	2	20	12	1	0.305288	2	"Flanker"	"Incong"	"N.S"	"PO3.4"
"873"	2	2	20	13	1	0.326094	2	"Flanker"	"Cong"	"N.S"	"PO3.4"
"874"	2	2	20	14	0	0.343357	2	"Flanker"	"Incong"	"N.S"	"PO3.4"
"875"	2	2	20	15	1	0.323883	2	"Flanker"	"Cong"	"N.S"	"PO3.4"
"876"	2	2	20	16	1	0.421753	2	"Flanker"	"Incong"	"E.W"	"PO3.4"
"877"	2	2	20	17	0	0.308125	2	"Flanker"	"Incong"	"E.W"	"PO3.4"
"878"	2	2	20	18	1	0.320466	2	"Flanker"	"Cong"	"E.W"	"PO3.4"
"879"	2	2	20	19	1	0.397323	2	"Flanker"	"Incong"	"E.W"	"PO3.4"
"880"	2	2	20	20	1	0.295445	2	"Flanker"	"Cong"	"E.W"	"PO3.4"
"881"	2	2	21	1	1	0.473068	4	"Flanker"	"Incong"	"NE.SW"	"Inion"
"882"	2	2	21	2	1	0.531998	4	"Flanker"	"Cong"	"NE.SW"	"Inion"
"883"	2	2	21	3	1	0.500877	4	"Flanker"	"Incong"	"NE.SW"	"Inion"
"884"	2	2	21	4	1	0.430158	4	"Flanker"	"Cong"	"NE.SW"	"Inion"
"885"	2	2	21	5	1	0.518399	4	"Flanker"	"Cong"	"NE.SW"	"Inion"
"886"	2	2	21	6	1	0.437065	4	"Flanker"	"Cong"	"NW.SE"	"Inion"
"887"	2	2	21	7	1	0.375754	4	"Flanker"	"Cong"	"NW.SE"	"Inion"
"888"	2	2	21	8	1	0.444727	4	"Flanker"	"Incong"	"NW.SE"	"Inion"
"889"	2	2	21	9	0	0.71947	4	"Flanker"	"Incong"	"NW.SE"	"Inion"
"890"	2	2	21	10	1	0.482156	4	"Flanker"	"Incong"	"NW.SE"	"Inion"
"891"	2	2	21	11	1	0.563766	4	"Flanker"	"Incong"	"E.W"	"Inion"
"892"	2	2	21	12	1	0.573978	4	"Flanker"	"Incong"	"E.W"	"Inion"
"893"	2	2	21	13	1	0.63084	4	"Flanker"	"Cong"	"E.W"	"Inion"
"894"	2	2	21	14	1	0.522539	4	"Flanker"	"Cong"	"E.W"	"Inion"
"895"	2	2	21	15	1	0.427709	4	"Flanker"	"Cong"	"E.W"	"Inion"
"896"	2	2	21	16	1	0.540937	3	"Flanker"	"Incong"	"N.S"	"Inion"
"897"	2	2	21	17	1	0.537541	3	"Flanker"	"Incong"	"N.S"	"Inion"
"898"	2	2	21	18	0	0.468606	3	"Flanker"	"Incong"	"N.S"	"Inion"
"899"	2	2	21	19	1	0.467743	3	"Flanker"	"Cong"	"N.S"	"Inion"
"900"	2	2	21	20	1	0.421429	3	"Flanker"	"Cong"	"N.S"	"Inion"
"901"	2	2	22	1	1	0.4354	3	"Flanker"	"Cong"	"N.S"	"FC5.6"
"902"	2	2	22	2	1	0.346559	3	"Flanker"	"Cong"	"N.S"	"FC5.6"
"903"	2	2	22	3	1	0.473732	3	"Flanker"	"Incong"	"N.S"	"FC5.6"
"904"	2	2	22	4	1	0.352003	3	"Flanker"	"Cong"	"N.S"	"FC5.6"
"905"	2	2	22	5	1	0.386507	3	"Flanker"	"Incong"	"N.S"	"FC5.6"
"906"	2	2	22	6	1	0.408884	3	"Flanker"	"Cong"	"NE.SW"	"FC5.6"
"907"	2	2	22	7	1	0.415078	3	"Flanker"	"Cong"	"NE.SW"	"FC5.6"
"908"	2	2	22	8	1	0.639071	3	"Flanker"	"Incong"	"NE.SW"	"FC5.6"
"909"	2	2	22	9	1	0.440393	3	"Flanker"	"Incong"	"NE.SW"	"FC5.6"
"910"	2	2	22	10	1	0.552331	3	"Flanker"	"Incong"	"NE.SW"	"FC5.6"
"911"	2	2	22	11	1	0.478781	2	"Flanker"	"Incong"	"E.W"	"FC5.6"
"912"	2	2	22	12	0	0.513458	2	"Flanker"	"Incong"	"E.W"	"FC5.6"
"913"	2	2	22	13	1	0.440688	2	"Flanker"	"Incong"	"E.W"	"FC5.6"
"914"	2	2	22	14	1	0.333469	2	"Flanker"	"Cong"	"E.W"	"FC5.6"
"915"	2	2	22	15	1	0.352702	2	"Flanker"	"Cong"	"E.W"	"FC5.6"
"916"	2	2	22	16	1	0.407897	3	"Flanker"	"Incong"	"NW.SE"	"FC5.6"
"917"	2	2	22	17	1	0.322783	3	"Flanker"	"Cong"	"NW.SE"	"FC5.6"
"918"	2	2	22	18	1	0.420548	3	"Flanker"	"Incong"	"NW.SE"	"FC5.6"
"919"	2	2	22	19	1	0.390187	3	"Flanker"	"Cong"	"NW.SE"	"FC5.6"
"920"	2	2	22	20	1	0.386658	3	"Flanker"	"Cong"	"NW.SE"	"FC5.6"
"921"	2	2	23	1	1	0.492227	2	"Flanker"	"Incong"	"NE.SW"	"FZ"
"922"	2	2	23	2	1	0.365908	2	"Flanker"	"Incong"	"NE.SW"	"FZ"
"923"	2	2	23	3	1	0.318715	2	"Flanker"	"Cong"	"NE.SW"	"FZ"
"924"	2	2	23	4	1	0.346415	2	"Flanker"	"Cong"	"NE.SW"	"FZ"
"925"	2	2	23	5	1	0.470963	2	"Flanker"	"Incong"	"NE.SW"	"FZ"
"926"	2	2	23	6	1	0.440781	2	"Flanker"	"Cong"	"E.W"	"FZ"
"927"	2	2	23	7	1	0.374605	2	"Flanker"	"Cong"	"E.W"	"FZ"
"928"	2	2	23	8	1	0.33959	2	"Flanker"	"Cong"	"E.W"	"FZ"
"929"	2	2	23	9	0	0.35095	2	"Flanker"	"Incong"	"E.W"	"FZ"
"930"	2	2	23	10	1	0.399223	2	"Flanker"	"Incong"	"E.W"	"FZ"
"931"	2	2	23	11	1	0.422535	2	"Flanker"	"Incong"	"N.S"	"FZ"
"932"	2	2	23	12	1	0.404968	2	"Flanker"	"Cong"	"N.S"	"FZ"
"933"	2	2	23	13	1	0.321734	2	"Flanker"	"Cong"	"N.S"	"FZ"
"934"	2	2	23	14	1	0.378277	2	"Flanker"	"Cong"	"N.S"	"FZ"
"935"	2	2	23	15	1	0.440566	2	"Flanker"	"Incong"	"N.S"	"FZ"
"936"	2	2	23	16	1	0.433261	2	"Flanker"	"Incong"	"NW.SE"	"FZ"
"937"	2	2	23	17	1	0.398601	2	"Flanker"	"Cong"	"NW.SE"	"FZ"
"938"	2	2	23	18	1	0.392875	2	"Flanker"	"Incong"	"NW.SE"	"FZ"
"939"	2	2	23	19	1	0.316701	2	"Flanker"	"Cong"	"NW.SE"	"FZ"
"940"	2	2	23	20	0	0.294572	2	"Flanker"	"Incong"	"NW.SE"	"FZ"
"941"	2	2	24	1	1	0.470538	2	"Flanker"	"Cong"	"N.S"	"LatIn"
"942"	2	2	24	2	1	0.480697	2	"Flanker"	"Incong"	"N.S"	"LatIn"
"943"	2	2	24	3	1	0.395139	2	"Flanker"	"Incong"	"N.S"	"LatIn"
"944"	2	2	24	4	1	0.409902	2	"Flanker"	"Incong"	"N.S"	"LatIn"
"945"	2	2	24	5	1	0.364126	2	"Flanker"	"Cong"	"N.S"	"LatIn"
"946"	2	2	24	6	0	0.347546	2	"Flanker"	"Incong"	"NE.SW"	"LatIn"
"947"	2	2	24	7	1	0.470712	2	"Flanker"	"Incong"	"NE.SW"	"LatIn"
"948"	2	2	24	8	1	0.423814	2	"Flanker"	"Cong"	"NE.SW"	"LatIn"
"949"	2	2	24	9	1	0.490175	2	"Flanker"	"Cong"	"NE.SW"	"LatIn"
"950"	2	2	24	10	1	0.541837	2	"Flanker"	"Incong"	"NE.SW"	"LatIn"
"951"	2	2	24	11	1	0.4656	4	"Flanker"	"Incong"	"E.W"	"LatIn"
"952"	2	2	24	12	1	0.711336	4	"Flanker"	"Incong"	"E.W"	"LatIn"
"953"	2	2	24	13	1	0.684068	4	"Flanker"	"Cong"	"E.W"	"LatIn"
"954"	2	2	24	14	1	0.6313	4	"Flanker"	"Cong"	"E.W"	"LatIn"
"955"	2	2	24	15	1	0.672666	4	"Flanker"	"Cong"	"E.W"	"LatIn"
"956"	2	2	24	16	1	0.685453	3	"Flanker"	"Cong"	"NW.SE"	"LatIn"
"957"	2	2	24	17	1	0.715921	3	"Flanker"	"Incong"	"NW.SE"	"LatIn"
"958"	2	2	24	18	0	1.003488	3	"Flanker"	"Cong"	"NW.SE"	"LatIn"
"959"	2	2	24	19	1	0.444918	3	"Flanker"	"Incong"	"NW.SE"	"LatIn"
"960"	2	2	24	20	1	0.501054	3	"Flanker"	"Cong"	"NW.SE"	"LatIn"
"961"	9	1	1	1	1	0.589253	2	"Flanker"	"Incong"	"NE.SW"	"FC5.6"
"962"	9	1	1	2	1	0.386936	2	"Flanker"	"Cong"	"NE.SW"	"FC5.6"
"963"	9	1	1	3	1	0.436303	2	"Flanker"	"Cong"	"NE.SW"	"FC5.6"
"964"	9	1	1	4	1	0.619515	2	"Flanker"	"Incong"	"NE.SW"	"FC5.6"
"965"	9	1	1	5	1	0.624256	2	"Flanker"	"Cong"	"NE.SW"	"FC5.6"
"966"	9	1	1	6	1	0.664964	0	"Flanker"	"Incong"	"N.S"	"FC5.6"
"967"	9	1	1	7	1	0.659521	0	"Flanker"	"Cong"	"N.S"	"FC5.6"
"968"	9	1	1	8	1	0.725049	0	"Flanker"	"Cong"	"N.S"	"FC5.6"
"969"	9	1	1	9	1	0.619991	0	"Flanker"	"Incong"	"N.S"	"FC5.6"
"970"	9	1	1	10	1	0.699294	0	"Flanker"	"Cong"	"N.S"	"FC5.6"
"971"	9	1	1	11	1	1.285165	3	"Flanker"	"Incong"	"NW.SE"	"FC5.6"
"972"	9	1	1	12	1	0.699498	3	"Flanker"	"Incong"	"NW.SE"	"FC5.6"
"973"	9	1	1	13	1	0.629743	3	"Flanker"	"Incong"	"NW.SE"	"FC5.6"
"974"	9	1	1	14	1	0.651308	3	"Flanker"	"Cong"	"NW.SE"	"FC5.6"
"975"	9	1	1	15	1	0.502717	3	"Flanker"	"Cong"	"NW.SE"	"FC5.6"
"976"	9	1	1	16	1	0.557898	2	"Flanker"	"Cong"	"E.W"	"FC5.6"
"977"	9	1	1	17	1	0.592865	2	"Flanker"	"Incong"	"E.W"	"FC5.6"
"978"	9	1	1	18	1	0.617264	2	"Flanker"	"Incong"	"E.W"	"FC5.6"
"979"	9	1	1	19	1	0.644044	2	"Flanker"	"Cong"	"E.W"	"FC5.6"
"980"	9	1	1	20	1	0.593267	2	"Flanker"	"Incong"	"E.W"	"FC5.6"
"981"	9	1	2	1	1	0.484581	1	"Flanker"	"Cong"	"E.W"	"FZ"
"982"	9	1	2	2	1	0.500768	1	"Flanker"	"Cong"	"E.W"	"FZ"
"983"	9	1	2	3	1	0.517536	1	"Flanker"	"Incong"	"E.W"	"FZ"
"984"	9	1	2	4	1	0.982297	1	"Flanker"	"Incong"	"E.W"	"FZ"
"985"	9	1	2	5	1	0.734396	1	"Flanker"	"Incong"	"E.W"	"FZ"
"986"	9	1	2	6	1	0.639263	1	"Flanker"	"Cong"	"NE.SW"	"FZ"
"987"	9	1	2	7	1	0.587023	1	"Flanker"	"Incong"	"NE.SW"	"FZ"
"988"	9	1	2	8	1	0.84753	1	"Flanker"	"Cong"	"NE.SW"	"FZ"
"989"	9	1	2	9	1	0.617267	1	"Flanker"	"Incong"	"NE.SW"	"FZ"
"990"	9	1	2	10	1	0.685796	1	"Flanker"	"Cong"	"NE.SW"	"FZ"
"991"	9	1	2	11	1	0.47901	3	"Flanker"	"Cong"	"N.S"	"FZ"
"992"	9	1	2	12	1	0.383989	3	"Flanker"	"Cong"	"N.S"	"FZ"
"993"	9	1	2	13	1	0.64782	3	"Flanker"	"Incong"	"N.S"	"FZ"
"994"	9	1	2	14	1	0.542752	3	"Flanker"	"Incong"	"N.S"	"FZ"
"995"	9	1	2	15	1	0.570915	3	"Flanker"	"Incong"	"N.S"	"FZ"
"996"	9	1	2	16	1	0.52376	0	"Flanker"	"Cong"	"NW.SE"	"FZ"
"997"	9	1	2	17	1	0.551316	0	"Flanker"	"Cong"	"NW.SE"	"FZ"
"998"	9	1	2	18	1	0.655616	0	"Flanker"	"Cong"	"NW.SE"	"FZ"
"999"	9	1	2	19	1	0.508954	0	"Flanker"	"Incong"	"NW.SE"	"FZ"
"1000"	9	1	2	20	1	0.544669	0	"Flanker"	"Incong"	"NW.SE"	"FZ"
"1001"	9	1	3	1	1	0.503733	0	"Flanker"	"Cong"	"N.S"	"PO3.4"
"1002"	9	1	3	2	1	0.517828	0	"Flanker"	"Cong"	"N.S"	"PO3.4"
"1003"	9	1	3	3	1	0.49382	0	"Flanker"	"Incong"	"N.S"	"PO3.4"
"1004"	9	1	3	4	1	0.526632	0	"Flanker"	"Cong"	"N.S"	"PO3.4"
"1005"	9	1	3	5	1	0.408775	0	"Flanker"	"Incong"	"N.S"	"PO3.4"
"1006"	9	1	3	6	1	0.621293	3	"Flanker"	"Incong"	"NE.SW"	"PO3.4"
"1007"	9	1	3	7	1	0.577117	3	"Flanker"	"Incong"	"NE.SW"	"PO3.4"
"1008"	9	1	3	8	1	0.435283	3	"Flanker"	"Cong"	"NE.SW"	"PO3.4"
"1009"	9	1	3	9	1	0.7232	3	"Flanker"	"Incong"	"NE.SW"	"PO3.4"
"1010"	9	1	3	10	1	0.589278	3	"Flanker"	"Cong"	"NE.SW"	"PO3.4"
"1011"	9	1	3	11	1	0.463202	0	"Flanker"	"Cong"	"E.W"	"PO3.4"
"1012"	9	1	3	12	1	0.497682	0	"Flanker"	"Incong"	"E.W"	"PO3.4"
"1013"	9	1	3	13	1	0.446508	0	"Flanker"	"Cong"	"E.W"	"PO3.4"
"1014"	9	1	3	14	1	0.658795	0	"Flanker"	"Incong"	"E.W"	"PO3.4"
"1015"	9	1	3	15	1	0.415832	0	"Flanker"	"Cong"	"E.W"	"PO3.4"
"1016"	9	1	3	16	1	0.517462	1	"Flanker"	"Incong"	"NW.SE"	"PO3.4"
"1017"	9	1	3	17	1	0.499702	1	"Flanker"	"Incong"	"NW.SE"	"PO3.4"
"1018"	9	1	3	18	1	0.537279	1	"Flanker"	"Cong"	"NW.SE"	"PO3.4"
"1019"	9	1	3	19	1	0.503819	1	"Flanker"	"Incong"	"NW.SE"	"PO3.4"
"1020"	9	1	3	20	1	0.502952	1	"Flanker"	"Cong"	"NW.SE"	"PO3.4"
"1021"	9	1	4	1	1	0.948689	8	"Flanker"	"Incong"	"NW.SE"	"FP"
"1022"	9	1	4	2	1	0.612268	8	"Flanker"	"Cong"	"NW.SE"	"FP"
"1023"	9	1	4	3	1	0.567622	8	"Flanker"	"Cong"	"NW.SE"	"FP"
"1024"	9	1	4	4	1	0.68102	8	"Flanker"	"Cong"	"NW.SE"	"FP"
"1025"	9	1	4	5	1	0.566558	8	"Flanker"	"Incong"	"NW.SE"	"FP"
"1026"	9	1	4	6	1	0.553471	6	"Flanker"	"Cong"	"NE.SW"	"FP"
"1027"	9	1	4	7	1	0.614695	6	"Flanker"	"Incong"	"NE.SW"	"FP"
"1028"	9	1	4	8	1	0.649491	6	"Flanker"	"Cong"	"NE.SW"	"FP"
"1029"	9	1	4	9	1	0.737325	6	"Flanker"	"Cong"	"NE.SW"	"FP"
"1030"	9	1	4	10	1	0.611241	6	"Flanker"	"Incong"	"NE.SW"	"FP"
"1031"	9	1	4	11	1	0.567612	8	"Flanker"	"Cong"	"E.W"	"FP"
"1032"	9	1	4	12	1	0.480812	8	"Flanker"	"Cong"	"E.W"	"FP"
"1033"	9	1	4	13	1	0.666107	8	"Flanker"	"Incong"	"E.W"	"FP"
"1034"	9	1	4	14	1	0.677351	8	"Flanker"	"Incong"	"E.W"	"FP"
"1035"	9	1	4	15	1	0.631647	8	"Flanker"	"Incong"	"E.W"	"FP"
"1036"	9	1	4	16	1	0.557042	5	"Flanker"	"Incong"	"N.S"	"FP"
"1037"	9	1	4	17	1	0.492688	5	"Flanker"	"Incong"	"N.S"	"FP"
"1038"	9	1	4	18	1	0.644952	5	"Flanker"	"Incong"	"N.S"	"FP"
"1039"	9	1	4	19	1	0.493875	5	"Flanker"	"Cong"	"N.S"	"FP"
"1040"	9	1	4	20	1	0.564172	5	"Flanker"	"Cong"	"N.S"	"FP"
"1041"	9	1	5	1	1	0.575824	5	"Flanker"	"Cong"	"NW.SE"	"F7.8"
"1042"	9	1	5	2	1	0.706392	5	"Flanker"	"Incong"	"NW.SE"	"F7.8"
"1043"	9	1	5	3	1	0.575927	5	"Flanker"	"Cong"	"NW.SE"	"F7.8"
"1044"	9	1	5	4	1	0.551674	5	"Flanker"	"Incong"	"NW.SE"	"F7.8"
"1045"	9	1	5	5	1	0.582639	5	"Flanker"	"Cong"	"NW.SE"	"F7.8"
"1046"	9	1	5	6	1	0.494728	5	"Flanker"	"Cong"	"NE.SW"	"F7.8"
"1047"	9	1	5	7	1	0.624911	5	"Flanker"	"Incong"	"NE.SW"	"F7.8"
"1048"	9	1	5	8	1	0.587212	5	"Flanker"	"Incong"	"NE.SW"	"F7.8"
"1049"	9	1	5	9	1	0.879888	5	"Flanker"	"Incong"	"NE.SW"	"F7.8"
"1050"	9	1	5	10	1	0.595386	5	"Flanker"	"Cong"	"NE.SW"	"F7.8"
"1051"	9	1	5	11	1	0.559777	5	"Flanker"	"Incong"	"E.W"	"F7.8"
"1052"	9	1	5	12	1	1.184851	5	"Flanker"	"Incong"	"E.W"	"F7.8"
"1053"	9	1	5	13	1	0.476086	5	"Flanker"	"Cong"	"E.W"	"F7.8"
"1054"	9	1	5	14	1	0.589378	5	"Flanker"	"Cong"	"E.W"	"F7.8"
"1055"	9	1	5	15	1	0.632146	5	"Flanker"	"Cong"	"E.W"	"F7.8"
"1056"	9	1	5	16	1	0.46526	8	"Flanker"	"Cong"	"N.S"	"F7.8"
"1057"	9	1	5	17	1	0.65382	8	"Flanker"	"Incong"	"N.S"	"F7.8"
"1058"	9	1	5	18	1	0.836508	8	"Flanker"	"Incong"	"N.S"	"F7.8"
"1059"	9	1	5	19	1	0.536995	8	"Flanker"	"Cong"	"N.S"	"F7.8"
"1060"	9	1	5	20	1	0.591076	8	"Flanker"	"Incong"	"N.S"	"F7.8"
"1061"	9	1	6	1	1	0.525678	7	"Flanker"	"Cong"	"NE.SW"	"ATL"
"1062"	9	1	6	2	1	0.635232	7	"Flanker"	"Cong"	"NE.SW"	"ATL"
"1063"	9	1	6	3	1	0.544832	7	"Flanker"	"Incong"	"NE.SW"	"ATL"
"1064"	9	1	6	4	1	0.511197	7	"Flanker"	"Cong"	"NE.SW"	"ATL"
"1065"	9	1	6	5	1	0.538734	7	"Flanker"	"Incong"	"NE.SW"	"ATL"
"1066"	9	1	6	6	1	0.517656	9	"Flanker"	"Incong"	"NW.SE"	"ATL"
"1067"	9	1	6	7	1	0.565096	9	"Flanker"	"Incong"	"NW.SE"	"ATL"
"1068"	9	1	6	8	1	0.565153	9	"Flanker"	"Cong"	"NW.SE"	"ATL"
"1069"	9	1	6	9	1	0.49548	9	"Flanker"	"Cong"	"NW.SE"	"ATL"
"1070"	9	1	6	10	1	0.512041	9	"Flanker"	"Incong"	"NW.SE"	"ATL"
"1071"	9	1	6	11	1	0.601276	5	"Flanker"	"Incong"	"N.S"	"ATL"
"1072"	9	1	6	12	1	0.482416	5	"Flanker"	"Cong"	"N.S"	"ATL"
"1073"	9	1	6	13	1	0.571666	5	"Flanker"	"Incong"	"N.S"	"ATL"
"1074"	9	1	6	14	1	0.496048	5	"Flanker"	"Cong"	"N.S"	"ATL"
"1075"	9	1	6	15	1	0.498367	5	"Flanker"	"Incong"	"N.S"	"ATL"
"1076"	9	1	6	16	1	0.545944	5	"Flanker"	"Incong"	"E.W"	"ATL"
"1077"	9	1	6	17	1	0.524306	5	"Flanker"	"Cong"	"E.W"	"ATL"
"1078"	9	1	6	18	1	0.475792	5	"Flanker"	"Cong"	"E.W"	"ATL"
"1079"	9	1	6	19	1	0.544978	5	"Flanker"	"Incong"	"E.W"	"ATL"
"1080"	9	1	6	20	1	0.796255	5	"Flanker"	"Cong"	"E.W"	"ATL"
"1081"	9	1	7	1	1	0.828112	1	"Flanker"	"Incong"	"N.S"	"C3.4"
"1082"	9	1	7	2	1	0.797883	1	"Flanker"	"Incong"	"N.S"	"C3.4"
"1083"	9	1	7	3	1	0.516359	1	"Flanker"	"Incong"	"N.S"	"C3.4"
"1084"	9	1	7	4	1	0.485794	1	"Flanker"	"Cong"	"N.S"	"C3.4"
"1085"	9	1	7	5	1	0.513954	1	"Flanker"	"Cong"	"N.S"	"C3.4"
"1086"	9	1	7	6	1	0.582803	0	"Flanker"	"Cong"	"NE.SW"	"C3.4"
"1087"	9	1	7	7	1	0.57959	0	"Flanker"	"Incong"	"NE.SW"	"C3.4"
"1088"	9	1	7	8	1	0.544434	0	"Flanker"	"Incong"	"NE.SW"	"C3.4"
"1089"	9	1	7	9	1	0.534459	0	"Flanker"	"Cong"	"NE.SW"	"C3.4"
"1090"	9	1	7	10	1	0.489719	0	"Flanker"	"Incong"	"NE.SW"	"C3.4"
"1091"	9	1	7	11	1	0.621453	1	"Flanker"	"Cong"	"E.W"	"C3.4"
"1092"	9	1	7	12	1	0.544571	1	"Flanker"	"Incong"	"E.W"	"C3.4"
"1093"	9	1	7	13	1	0.712676	1	"Flanker"	"Incong"	"E.W"	"C3.4"
"1094"	9	1	7	14	1	0.468222	1	"Flanker"	"Cong"	"E.W"	"C3.4"
"1095"	9	1	7	15	1	0.613962	1	"Flanker"	"Cong"	"E.W"	"C3.4"
"1096"	9	1	7	16	1	0.484704	0	"Flanker"	"Cong"	"NW.SE"	"C3.4"
"1097"	9	1	7	17	1	0.671321	0	"Flanker"	"Cong"	"NW.SE"	"C3.4"
"1098"	9	1	7	18	1	0.564037	0	"Flanker"	"Incong"	"NW.SE"	"C3.4"
"1099"	9	1	7	19	1	0.458443	0	"Flanker"	"Cong"	"NW.SE"	"C3.4"
"1100"	9	1	7	20	1	0.515019	0	"Flanker"	"Incong"	"NW.SE"	"C3.4"
"1101"	9	1	8	1	1	0.585558	0	"Flanker"	"Incong"	"N.S"	"CP5.6"
"1102"	9	1	8	2	1	0.570066	0	"Flanker"	"Incong"	"N.S"	"CP5.6"
"1103"	9	1	8	3	1	0.471638	0	"Flanker"	"Incong"	"N.S"	"CP5.6"
"1104"	9	1	8	4	1	0.49878	0	"Flanker"	"Cong"	"N.S"	"CP5.6"
"1105"	9	1	8	5	1	0.441805	0	"Flanker"	"Cong"	"N.S"	"CP5.6"
"1106"	9	1	8	6	1	0.571963	0	"Flanker"	"Cong"	"NW.SE"	"CP5.6"
"1107"	9	1	8	7	1	0.53717	0	"Flanker"	"Incong"	"NW.SE"	"CP5.6"
"1108"	9	1	8	8	1	0.546681	0	"Flanker"	"Cong"	"NW.SE"	"CP5.6"
"1109"	9	1	8	9	1	0.489126	0	"Flanker"	"Cong"	"NW.SE"	"CP5.6"
"1110"	9	1	8	10	1	0.456481	0	"Flanker"	"Incong"	"NW.SE"	"CP5.6"
"1111"	9	1	8	11	1	0.595352	0	"Flanker"	"Incong"	"NE.SW"	"CP5.6"
"1112"	9	1	8	12	1	0.568667	0	"Flanker"	"Incong"	"NE.SW"	"CP5.6"
"1113"	9	1	8	13	1	0.682983	0	"Flanker"	"Cong"	"NE.SW"	"CP5.6"
"1114"	9	1	8	14	1	0.504476	0	"Flanker"	"Cong"	"NE.SW"	"CP5.6"
"1115"	9	1	8	15	1	0.510196	0	"Flanker"	"Incong"	"NE.SW"	"CP5.6"
"1116"	9	1	8	16	1	0.618653	0	"Flanker"	"Incong"	"E.W"	"CP5.6"
"1117"	9	1	8	17	1	0.621524	0	"Flanker"	"Cong"	"E.W"	"CP5.6"
"1118"	9	1	8	18	1	0.673495	0	"Flanker"	"Cong"	"E.W"	"CP5.6"
"1119"	9	1	8	19	1	0.716152	0	"Flanker"	"Cong"	"E.W"	"CP5.6"
"1120"	9	1	8	20	1	0.719323	0	"Flanker"	"Incong"	"E.W"	"CP5.6"
"1121"	9	1	9	1	1	0.528409	0	"Flanker"	"Cong"	"N.S"	"P3.4"
"1122"	9	1	9	2	1	0.653981	0	"Flanker"	"Incong"	"N.S"	"P3.4"
"1123"	9	1	9	3	1	0.609271	0	"Flanker"	"Incong"	"N.S"	"P3.4"
"1124"	9	1	9	4	1	0.458609	0	"Flanker"	"Cong"	"N.S"	"P3.4"
"1125"	9	1	9	5	1	0.653092	0	"Flanker"	"Incong"	"N.S"	"P3.4"
"1126"	9	1	9	6	1	0.599257	0	"Flanker"	"Incong"	"NE.SW"	"P3.4"
"1127"	9	1	9	7	1	0.674649	0	"Flanker"	"Incong"	"NE.SW"	"P3.4"
"1128"	9	1	9	8	1	0.525875	0	"Flanker"	"Incong"	"NE.SW"	"P3.4"
"1129"	9	1	9	9	1	0.484973	0	"Flanker"	"Cong"	"NE.SW"	"P3.4"
"1130"	9	1	9	10	1	0.415456	0	"Flanker"	"Cong"	"NE.SW"	"P3.4"
"1131"	9	1	9	11	1	0.660841	0	"Flanker"	"Cong"	"NW.SE"	"P3.4"
"1132"	9	1	9	12	1	0.50257	0	"Flanker"	"Cong"	"NW.SE"	"P3.4"
"1133"	9	1	9	13	1	0.5983	0	"Flanker"	"Cong"	"NW.SE"	"P3.4"
"1134"	9	1	9	14	1	0.548608	0	"Flanker"	"Incong"	"NW.SE"	"P3.4"
"1135"	9	1	9	15	1	0.692042	0	"Flanker"	"Incong"	"NW.SE"	"P3.4"
"1136"	9	1	9	16	1	0.555935	0	"Flanker"	"Incong"	"E.W"	"P3.4"
"1137"	9	1	9	17	1	0.573084	0	"Flanker"	"Cong"	"E.W"	"P3.4"
"1138"	9	1	9	18	1	0.40804	0	"Flanker"	"Cong"	"E.W"	"P3.4"
"1139"	9	1	9	19	1	0.525458	0	"Flanker"	"Incong"	"E.W"	"P3.4"
"1140"	9	1	9	20	1	0.54824	0	"Flanker"	"Cong"	"E.W"	"P3.4"
"1141"	9	1	10	1	1	0.794563	1	"Flanker"	"Incong"	"N.S"	"P7.8"
"1142"	9	1	10	2	1	0.449667	1	"Flanker"	"Cong"	"N.S"	"P7.8"
"1143"	9	1	10	3	1	0.369596	1	"Flanker"	"Cong"	"N.S"	"P7.8"
"1144"	9	1	10	4	1	0.626323	1	"Flanker"	"Incong"	"N.S"	"P7.8"
"1145"	9	1	10	5	1	0.570771	1	"Flanker"	"Cong"	"N.S"	"P7.8"
"1146"	9	1	10	6	1	0.381489	0	"Flanker"	"Cong"	"E.W"	"P7.8"
"1147"	9	1	10	7	1	0.506246	0	"Flanker"	"Incong"	"E.W"	"P7.8"
"1148"	9	1	10	8	1	0.581132	0	"Flanker"	"Cong"	"E.W"	"P7.8"
"1149"	9	1	10	9	1	0.467466	0	"Flanker"	"Incong"	"E.W"	"P7.8"
"1150"	9	1	10	10	1	0.572761	0	"Flanker"	"Incong"	"E.W"	"P7.8"
"1151"	9	1	10	11	1	0.557077	0	"Flanker"	"Incong"	"NW.SE"	"P7.8"
"1152"	9	1	10	12	1	0.472948	0	"Flanker"	"Incong"	"NW.SE"	"P7.8"
"1153"	9	1	10	13	1	0.546526	0	"Flanker"	"Cong"	"NW.SE"	"P7.8"
"1154"	9	1	10	14	1	0.519036	0	"Flanker"	"Cong"	"NW.SE"	"P7.8"
"1155"	9	1	10	15	1	0.452638	0	"Flanker"	"Cong"	"NW.SE"	"P7.8"
"1156"	9	1	10	16	1	0.502384	1	"Flanker"	"Cong"	"NE.SW"	"P7.8"
"1157"	9	1	10	17	1	0.506412	1	"Flanker"	"Incong"	"NE.SW"	"P7.8"
"1158"	9	1	10	18	1	0.673952	1	"Flanker"	"Cong"	"NE.SW"	"P7.8"
"1159"	9	1	10	19	1	0.564006	1	"Flanker"	"Incong"	"NE.SW"	"P7.8"
"1160"	9	1	10	20	1	0.747064	1	"Flanker"	"Incong"	"NE.SW"	"P7.8"
"1161"	9	1	11	1	1	0.474022	0	"Flanker"	"Cong"	"E.W"	"OZ"
"1162"	9	1	11	2	1	0.468532	0	"Flanker"	"Cong"	"E.W"	"OZ"
"1163"	9	1	11	3	1	0.486673	0	"Flanker"	"Incong"	"E.W"	"OZ"
"1164"	9	1	11	4	1	0.440186	0	"Flanker"	"Cong"	"E.W"	"OZ"
"1165"	9	1	11	5	1	0.897555	0	"Flanker"	"Incong"	"E.W"	"OZ"
"1166"	9	1	11	6	1	0.593585	0	"Flanker"	"Incong"	"NE.SW"	"OZ"
"1167"	9	1	11	7	1	0.558667	0	"Flanker"	"Cong"	"NE.SW"	"OZ"
"1168"	9	1	11	8	1	0.535177	0	"Flanker"	"Incong"	"NE.SW"	"OZ"
"1169"	9	1	11	9	1	0.370288	0	"Flanker"	"Cong"	"NE.SW"	"OZ"
"1170"	9	1	11	10	1	0.524134	0	"Flanker"	"Cong"	"NE.SW"	"OZ"
"1171"	9	1	11	11	1	0.539998	0	"Flanker"	"Incong"	"NW.SE"	"OZ"
"1172"	9	1	11	12	1	0.518294	0	"Flanker"	"Cong"	"NW.SE"	"OZ"
"1173"	9	1	11	13	1	0.462029	0	"Flanker"	"Incong"	"NW.SE"	"OZ"
"1174"	9	1	11	14	1	0.633265	0	"Flanker"	"Cong"	"NW.SE"	"OZ"
"1175"	9	1	11	15	1	0.592839	0	"Flanker"	"Incong"	"NW.SE"	"OZ"
"1176"	9	1	11	16	1	0.634362	0	"Flanker"	"Incong"	"N.S"	"OZ"
"1177"	9	1	11	17	1	0.454543	0	"Flanker"	"Incong"	"N.S"	"OZ"
"1178"	9	1	11	18	1	0.593791	0	"Flanker"	"Cong"	"N.S"	"OZ"
"1179"	9	1	11	19	1	0.622425	0	"Flanker"	"Cong"	"N.S"	"OZ"
"1180"	9	1	11	20	1	0.422433	0	"Flanker"	"Incong"	"N.S"	"OZ"
"1181"	9	1	12	1	1	0.402072	0	"Flanker"	"Cong"	"N.S"	"O1.2"
"1182"	9	1	12	2	1	0.43167	0	"Flanker"	"Cong"	"N.S"	"O1.2"
"1183"	9	1	12	3	1	0.424814	0	"Flanker"	"Incong"	"N.S"	"O1.2"
"1184"	9	1	12	4	1	0.538813	0	"Flanker"	"Incong"	"N.S"	"O1.2"
"1185"	9	1	12	5	1	0.488221	0	"Flanker"	"Incong"	"N.S"	"O1.2"
"1186"	9	1	12	6	0	0.407574	0	"Flanker"	"Incong"	"E.W"	"O1.2"
"1187"	9	1	12	7	1	0.430694	0	"Flanker"	"Cong"	"E.W"	"O1.2"
"1188"	9	1	12	8	1	0.437225	0	"Flanker"	"Incong"	"E.W"	"O1.2"
"1189"	9	1	12	9	1	0.519994	0	"Flanker"	"Cong"	"E.W"	"O1.2"
"1190"	9	1	12	10	1	0.585674	0	"Flanker"	"Incong"	"E.W"	"O1.2"
"1191"	9	1	12	11	1	0.532054	0	"Flanker"	"Cong"	"NW.SE"	"O1.2"
"1192"	9	1	12	12	1	0.552337	0	"Flanker"	"Incong"	"NW.SE"	"O1.2"
"1193"	9	1	12	13	1	0.461681	0	"Flanker"	"Cong"	"NW.SE"	"O1.2"
"1194"	9	1	12	14	1	0.60766	0	"Flanker"	"Cong"	"NW.SE"	"O1.2"
"1195"	9	1	12	15	1	0.636182	0	"Flanker"	"Incong"	"NW.SE"	"O1.2"
"1196"	9	1	12	16	1	0.631232	0	"Flanker"	"Incong"	"NE.SW"	"O1.2"
"1197"	9	1	12	17	1	0.570647	0	"Flanker"	"Cong"	"NE.SW"	"O1.2"
"1198"	9	1	12	18	1	0.46419	0	"Flanker"	"Cong"	"NE.SW"	"O1.2"
"1199"	9	1	12	19	1	0.474486	0	"Flanker"	"Incong"	"NE.SW"	"O1.2"
"1200"	9	1	12	20	1	0.579168	0	"Flanker"	"Cong"	"NE.SW"	"O1.2"
"1201"	9	1	13	1	1	0.54803	0	"Flanker"	"Cong"	"NW.SE"	"PZ"
"1202"	9	1	13	2	1	0.68399	0	"Flanker"	"Incong"	"NW.SE"	"PZ"
"1203"	9	1	13	3	1	0.880464	0	"Flanker"	"Incong"	"NW.SE"	"PZ"
"1204"	9	1	13	4	1	0.773515	0	"Flanker"	"Incong"	"NW.SE"	"PZ"
"1205"	9	1	13	5	1	0.486868	0	"Flanker"	"Cong"	"NW.SE"	"PZ"
"1206"	9	1	13	6	1	0.519588	0	"Flanker"	"Cong"	"N.S"	"PZ"
"1207"	9	1	13	7	1	0.507031	0	"Flanker"	"Cong"	"N.S"	"PZ"
"1208"	9	1	13	8	1	0.48508	0	"Flanker"	"Cong"	"N.S"	"PZ"
"1209"	9	1	13	9	1	0.514119	0	"Flanker"	"Incong"	"N.S"	"PZ"
"1210"	9	1	13	10	1	0.470526	0	"Flanker"	"Incong"	"N.S"	"PZ"
"1211"	9	1	13	11	1	0.564194	0	"Flanker"	"Incong"	"NE.SW"	"PZ"
"1212"	9	1	13	12	1	0.434143	0	"Flanker"	"Cong"	"NE.SW"	"PZ"
"1213"	9	1	13	13	1	0.421459	0	"Flanker"	"Cong"	"NE.SW"	"PZ"
"1214"	9	1	13	14	1	0.489734	0	"Flanker"	"Incong"	"NE.SW"	"PZ"
"1215"	9	1	13	15	1	0.422967	0	"Flanker"	"Cong"	"NE.SW"	"PZ"
"1216"	9	1	13	16	1	0.697647	0	"Flanker"	"Incong"	"E.W"	"PZ"
"1217"	9	1	13	17	1	0.416658	0	"Flanker"	"Incong"	"E.W"	"PZ"
"1218"	9	1	13	18	1	0.694833	0	"Flanker"	"Incong"	"E.W"	"PZ"
"1219"	9	1	13	19	1	0.609718	0	"Flanker"	"Cong"	"E.W"	"PZ"
"1220"	9	1	13	20	1	0.566693	0	"Flanker"	"Cong"	"E.W"	"PZ"
"1221"	9	1	14	1	1	0.536166	0	"Flanker"	"Incong"	"NE.SW"	"FC1.2"
"1222"	9	1	14	2	1	0.438828	0	"Flanker"	"Cong"	"NE.SW"	"FC1.2"
"1223"	9	1	14	3	1	0.481677	0	"Flanker"	"Incong"	"NE.SW"	"FC1.2"
"1224"	9	1	14	4	1	0.379144	0	"Flanker"	"Cong"	"NE.SW"	"FC1.2"
"1225"	9	1	14	5	1	0.41499	0	"Flanker"	"Incong"	"NE.SW"	"FC1.2"
"1226"	9	1	14	6	1	0.481513	0	"Flanker"	"Cong"	"N.S"	"FC1.2"
"1227"	9	1	14	7	1	0.612372	0	"Flanker"	"Incong"	"N.S"	"FC1.2"
"1228"	9	1	14	8	1	0.514738	0	"Flanker"	"Incong"	"N.S"	"FC1.2"
"1229"	9	1	14	9	1	0.634856	0	"Flanker"	"Incong"	"N.S"	"FC1.2"
"1230"	9	1	14	10	1	0.382458	0	"Flanker"	"Cong"	"N.S"	"FC1.2"
"1231"	9	1	14	11	1	0.534923	0	"Flanker"	"Cong"	"NW.SE"	"FC1.2"
"1232"	9	1	14	12	1	0.471094	0	"Flanker"	"Cong"	"NW.SE"	"FC1.2"
"1233"	9	1	14	13	1	0.628857	0	"Flanker"	"Incong"	"NW.SE"	"FC1.2"
"1234"	9	1	14	14	1	0.494616	0	"Flanker"	"Incong"	"NW.SE"	"FC1.2"
"1235"	9	1	14	15	1	0.651752	0	"Flanker"	"Cong"	"NW.SE"	"FC1.2"
"1236"	9	1	14	16	1	0.515261	0	"Flanker"	"Cong"	"E.W"	"FC1.2"
"1237"	9	1	14	17	1	0.484222	0	"Flanker"	"Cong"	"E.W"	"FC1.2"
"1238"	9	1	14	18	1	0.463953	0	"Flanker"	"Incong"	"E.W"	"FC1.2"
"1239"	9	1	14	19	1	0.605133	0	"Flanker"	"Cong"	"E.W"	"FC1.2"
"1240"	9	1	14	20	1	0.522239	0	"Flanker"	"Incong"	"E.W"	"FC1.2"
"1241"	9	1	15	1	1	0.5244	2	"Flanker"	"Cong"	"NW.SE"	"LatIn"
"1242"	9	1	15	2	1	0.608613	2	"Flanker"	"Incong"	"NW.SE"	"LatIn"
"1243"	9	1	15	3	1	0.533087	2	"Flanker"	"Incong"	"NW.SE"	"LatIn"
"1244"	9	1	15	4	1	0.467643	2	"Flanker"	"Cong"	"NW.SE"	"LatIn"
"1245"	9	1	15	5	1	0.455201	2	"Flanker"	"Incong"	"NW.SE"	"LatIn"
"1246"	9	1	15	6	1	0.65567	1	"Flanker"	"Incong"	"N.S"	"LatIn"
"1247"	9	1	15	7	1	0.474805	1	"Flanker"	"Cong"	"N.S"	"LatIn"
"1248"	9	1	15	8	1	0.593563	1	"Flanker"	"Incong"	"N.S"	"LatIn"
"1249"	9	1	15	9	1	0.506487	1	"Flanker"	"Incong"	"N.S"	"LatIn"
"1250"	9	1	15	10	1	0.469513	1	"Flanker"	"Cong"	"N.S"	"LatIn"
"1251"	9	1	15	11	1	0.685099	1	"Flanker"	"Cong"	"NE.SW"	"LatIn"
"1252"	9	1	15	12	1	0.676789	1	"Flanker"	"Incong"	"NE.SW"	"LatIn"
"1253"	9	1	15	13	1	0.84006	1	"Flanker"	"Cong"	"NE.SW"	"LatIn"
"1254"	9	1	15	14	1	0.647136	1	"Flanker"	"Cong"	"NE.SW"	"LatIn"
"1255"	9	1	15	15	1	0.661849	1	"Flanker"	"Incong"	"NE.SW"	"LatIn"
"1256"	9	1	15	16	1	0.648001	1	"Flanker"	"Incong"	"E.W"	"LatIn"
"1257"	9	1	15	17	1	0.38846	1	"Flanker"	"Cong"	"E.W"	"LatIn"
"1258"	9	1	15	18	1	0.54741	1	"Flanker"	"Cong"	"E.W"	"LatIn"
"1259"	9	1	15	19	1	0.845586	1	"Flanker"	"Cong"	"E.W"	"LatIn"
"1260"	9	1	15	20	1	1.364172	1	"Flanker"	"Incong"	"E.W"	"LatIn"
"1261"	9	1	16	1	1	0.57516	1	"Flanker"	"Incong"	"E.W"	"Inion"
"1262"	9	1	16	2	1	0.602177	1	"Flanker"	"Incong"	"E.W"	"Inion"
"1263"	9	1	16	3	1	0.767458	1	"Flanker"	"Incong"	"E.W"	"Inion"
"1264"	9	1	16	4	1	0.547604	1	"Flanker"	"Cong"	"E.W"	"Inion"
"1265"	9	1	16	5	1	0.568764	1	"Flanker"	"Cong"	"E.W"	"Inion"
"1266"	9	1	16	6	1	0.531199	0	"Flanker"	"Cong"	"NW.SE"	"Inion"
"1267"	9	1	16	7	1	0.411726	0	"Flanker"	"Cong"	"NW.SE"	"Inion"
"1268"	9	1	16	8	1	0.48223	0	"Flanker"	"Incong"	"NW.SE"	"Inion"
"1269"	9	1	16	9	1	0.423432	0	"Flanker"	"Incong"	"NW.SE"	"Inion"
"1270"	9	1	16	10	1	0.542529	0	"Flanker"	"Incong"	"NW.SE"	"Inion"
"1271"	9	1	16	11	1	0.479576	1	"Flanker"	"Incong"	"NE.SW"	"Inion"
"1272"	9	1	16	12	1	0.456251	1	"Flanker"	"Cong"	"NE.SW"	"Inion"
"1273"	9	1	16	13	1	0.405985	1	"Flanker"	"Cong"	"NE.SW"	"Inion"
"1274"	9	1	16	14	1	0.594087	1	"Flanker"	"Cong"	"NE.SW"	"Inion"
"1275"	9	1	16	15	1	0.992263	1	"Flanker"	"Incong"	"NE.SW"	"Inion"
"1276"	9	1	16	16	1	0.44899	0	"Flanker"	"Cong"	"N.S"	"Inion"
"1277"	9	1	16	17	1	0.406651	0	"Flanker"	"Cong"	"N.S"	"Inion"
"1278"	9	1	16	18	1	0.428507	0	"Flanker"	"Cong"	"N.S"	"Inion"
"1279"	9	1	16	19	1	0.532411	0	"Flanker"	"Incong"	"N.S"	"Inion"
"1280"	9	1	16	20	1	0.46498	0	"Flanker"	"Incong"	"N.S"	"Inion"
"1281"	9	1	17	1	1	0.568488	1	"Flanker"	"Cong"	"NE.SW"	"T7.8"
"1282"	9	1	17	2	1	0.508306	1	"Flanker"	"Incong"	"NE.SW"	"T7.8"
"1283"	9	1	17	3	1	0.470215	1	"Flanker"	"Cong"	"NE.SW"	"T7.8"
"1284"	9	1	17	4	1	0.63506	1	"Flanker"	"Cong"	"NE.SW"	"T7.8"
"1285"	9	1	17	5	1	0.726007	1	"Flanker"	"Incong"	"NE.SW"	"T7.8"
"1286"	9	1	17	6	1	0.711224	4	"Flanker"	"Incong"	"E.W"	"T7.8"
"1287"	9	1	17	7	1	0.491466	4	"Flanker"	"Cong"	"E.W"	"T7.8"
"1288"	9	1	17	8	1	0.611377	4	"Flanker"	"Cong"	"E.W"	"T7.8"
"1289"	9	1	17	9	1	1.194758	4	"Flanker"	"Incong"	"E.W"	"T7.8"
"1290"	9	1	17	10	1	0.525028	4	"Flanker"	"Incong"	"E.W"	"T7.8"
"1291"	9	1	17	11	1	0.542957	2	"Flanker"	"Incong"	"NW.SE"	"T7.8"
"1292"	9	1	17	12	1	0.484808	2	"Flanker"	"Cong"	"NW.SE"	"T7.8"
"1293"	9	1	17	13	1	0.669321	2	"Flanker"	"Incong"	"NW.SE"	"T7.8"
"1294"	9	1	17	14	1	0.505623	2	"Flanker"	"Incong"	"NW.SE"	"T7.8"
"1295"	9	1	17	15	1	0.602259	2	"Flanker"	"Cong"	"NW.SE"	"T7.8"
"1296"	9	1	17	16	NA	2.001377	1	"Flanker"	"Cong"	"N.S"	"T7.8"
"1297"	9	1	17	17	1	0.45741	1	"Flanker"	"Cong"	"N.S"	"T7.8"
"1298"	9	1	17	18	1	0.575617	1	"Flanker"	"Incong"	"N.S"	"T7.8"
"1299"	9	1	17	19	1	0.560353	1	"Flanker"	"Incong"	"N.S"	"T7.8"
"1300"	9	1	17	20	1	0.583487	1	"Flanker"	"Cong"	"N.S"	"T7.8"
"1301"	9	1	18	1	1	0.538786	0	"Flanker"	"Cong"	"N.S"	"CZ"
"1302"	9	1	18	2	1	0.550884	0	"Flanker"	"Cong"	"N.S"	"CZ"
"1303"	9	1	18	3	1	0.543582	0	"Flanker"	"Cong"	"N.S"	"CZ"
"1304"	9	1	18	4	1	0.524523	0	"Flanker"	"Incong"	"N.S"	"CZ"
"1305"	9	1	18	5	1	0.430271	0	"Flanker"	"Incong"	"N.S"	"CZ"
"1306"	9	1	18	6	1	0.526798	1	"Flanker"	"Cong"	"NW.SE"	"CZ"
"1307"	9	1	18	7	1	0.37648	1	"Flanker"	"Cong"	"NW.SE"	"CZ"
"1308"	9	1	18	8	1	0.559808	1	"Flanker"	"Incong"	"NW.SE"	"CZ"
"1309"	9	1	18	9	1	0.876364	1	"Flanker"	"Incong"	"NW.SE"	"CZ"
"1310"	9	1	18	10	1	0.560673	1	"Flanker"	"Incong"	"NW.SE"	"CZ"
"1311"	9	1	18	11	1	0.580786	0	"Flanker"	"Cong"	"E.W"	"CZ"
"1312"	9	1	18	12	1	0.549248	0	"Flanker"	"Cong"	"E.W"	"CZ"
"1313"	9	1	18	13	1	0.501346	0	"Flanker"	"Cong"	"E.W"	"CZ"
"1314"	9	1	18	14	1	0.578455	0	"Flanker"	"Incong"	"E.W"	"CZ"
"1315"	9	1	18	15	1	0.561856	0	"Flanker"	"Incong"	"E.W"	"CZ"
"1316"	9	1	18	16	1	0.519807	0	"Flanker"	"Incong"	"NE.SW"	"CZ"
"1317"	9	1	18	17	1	0.577875	0	"Flanker"	"Incong"	"NE.SW"	"CZ"
"1318"	9	1	18	18	1	0.479185	0	"Flanker"	"Cong"	"NE.SW"	"CZ"
"1319"	9	1	18	19	1	0.440786	0	"Flanker"	"Incong"	"NE.SW"	"CZ"
"1320"	9	1	18	20	1	0.50161	0	"Flanker"	"Cong"	"NE.SW"	"CZ"
"1321"	9	1	19	1	1	0.500293	4	"Flanker"	"Cong"	"NW.SE"	"AF"
"1322"	9	1	19	2	1	0.617822	4	"Flanker"	"Cong"	"NW.SE"	"AF"
"1323"	9	1	19	3	1	0.935976	4	"Flanker"	"Incong"	"NW.SE"	"AF"
"1324"	9	1	19	4	1	0.67348	4	"Flanker"	"Cong"	"NW.SE"	"AF"
"1325"	9	1	19	5	1	0.562722	4	"Flanker"	"Incong"	"NW.SE"	"AF"
"1326"	9	1	19	6	1	0.426548	1	"Flanker"	"Cong"	"N.S"	"AF"
"1327"	9	1	19	7	1	0.679441	1	"Flanker"	"Incong"	"N.S"	"AF"
"1328"	9	1	19	8	1	0.810272	1	"Flanker"	"Incong"	"N.S"	"AF"
"1329"	9	1	19	9	1	0.596786	1	"Flanker"	"Incong"	"N.S"	"AF"
"1330"	9	1	19	10	1	0.90349	1	"Flanker"	"Cong"	"N.S"	"AF"
"1331"	9	1	19	11	1	0.566998	2	"Flanker"	"Incong"	"E.W"	"AF"
"1332"	9	1	19	12	1	0.607713	2	"Flanker"	"Incong"	"E.W"	"AF"
"1333"	9	1	19	13	1	0.606596	2	"Flanker"	"Cong"	"E.W"	"AF"
"1334"	9	1	19	14	1	0.585414	2	"Flanker"	"Cong"	"E.W"	"AF"
"1335"	9	1	19	15	1	0.646439	2	"Flanker"	"Cong"	"E.W"	"AF"
"1336"	9	1	19	16	1	0.644943	4	"Flanker"	"Cong"	"NE.SW"	"AF"
"1337"	9	1	19	17	1	0.627833	4	"Flanker"	"Cong"	"NE.SW"	"AF"
"1338"	9	1	19	18	1	0.578346	4	"Flanker"	"Incong"	"NE.SW"	"AF"
"1339"	9	1	19	19	1	0.817435	4	"Flanker"	"Incong"	"NE.SW"	"AF"
"1340"	9	1	19	20	1	0.870749	4	"Flanker"	"Incong"	"NE.SW"	"AF"
"1341"	9	1	20	1	1	0.476889	1	"Flanker"	"Cong"	"N.S"	"TPJ"
"1342"	9	1	20	2	1	0.494317	1	"Flanker"	"Cong"	"N.S"	"TPJ"
"1343"	9	1	20	3	1	0.668721	1	"Flanker"	"Cong"	"N.S"	"TPJ"
"1344"	9	1	20	4	1	0.581764	1	"Flanker"	"Incong"	"N.S"	"TPJ"
"1345"	9	1	20	5	1	0.521848	1	"Flanker"	"Incong"	"N.S"	"TPJ"
"1346"	9	1	20	6	1	0.587307	1	"Flanker"	"Incong"	"E.W"	"TPJ"
"1347"	9	1	20	7	1	0.641159	1	"Flanker"	"Cong"	"E.W"	"TPJ"
"1348"	9	1	20	8	1	0.707531	1	"Flanker"	"Cong"	"E.W"	"TPJ"
"1349"	9	1	20	9	1	0.570859	1	"Flanker"	"Incong"	"E.W"	"TPJ"
"1350"	9	1	20	10	1	0.469157	1	"Flanker"	"Incong"	"E.W"	"TPJ"
"1351"	9	1	20	11	1	0.577554	1	"Flanker"	"Incong"	"NE.SW"	"TPJ"
"1352"	9	1	20	12	1	0.565349	1	"Flanker"	"Cong"	"NE.SW"	"TPJ"
"1353"	9	1	20	13	1	0.559638	1	"Flanker"	"Cong"	"NE.SW"	"TPJ"
"1354"	9	1	20	14	1	0.635253	1	"Flanker"	"Incong"	"NE.SW"	"TPJ"
"1355"	9	1	20	15	1	0.457826	1	"Flanker"	"Cong"	"NE.SW"	"TPJ"
"1356"	9	1	20	16	NA	2.000234	0	"Flanker"	"Incong"	"NW.SE"	"TPJ"
"1357"	9	1	20	17	NA	0.480851	0	"Flanker"	"Cong"	"NW.SE"	"TPJ"
"1358"	9	1	20	18	1	0.536769	0	"Flanker"	"Cong"	"NW.SE"	"TPJ"
"1359"	9	1	20	19	1	0.584781	0	"Flanker"	"Incong"	"NW.SE"	"TPJ"
"1360"	9	1	20	20	1	0.512203	0	"Flanker"	"Incong"	"NW.SE"	"TPJ"
"1361"	9	1	21	1	1	0.549865	0	"Flanker"	"Cong"	"N.S"	"V5"
"1362"	9	1	21	2	1	0.558067	0	"Flanker"	"Incong"	"N.S"	"V5"
"1363"	9	1	21	3	1	0.633458	0	"Flanker"	"Cong"	"N.S"	"V5"
"1364"	9	1	21	4	1	0.68907	0	"Flanker"	"Incong"	"N.S"	"V5"
"1365"	9	1	21	5	1	0.621787	0	"Flanker"	"Incong"	"N.S"	"V5"
"1366"	9	1	21	6	1	0.60475	1	"Flanker"	"Incong"	"NW.SE"	"V5"
"1367"	9	1	21	7	1	0.653276	1	"Flanker"	"Incong"	"NW.SE"	"V5"
"1368"	9	1	21	8	1	0.470289	1	"Flanker"	"Cong"	"NW.SE"	"V5"
"1369"	9	1	21	9	1	0.47167	1	"Flanker"	"Incong"	"NW.SE"	"V5"
"1370"	9	1	21	10	1	0.624203	1	"Flanker"	"Cong"	"NW.SE"	"V5"
"1371"	9	1	21	11	1	0.747225	0	"Flanker"	"Cong"	"NE.SW"	"V5"
"1372"	9	1	21	12	1	0.568884	0	"Flanker"	"Cong"	"NE.SW"	"V5"
"1373"	9	1	21	13	1	0.503235	0	"Flanker"	"Cong"	"NE.SW"	"V5"
"1374"	9	1	21	14	1	0.672956	0	"Flanker"	"Incong"	"NE.SW"	"V5"
"1375"	9	1	21	15	1	0.643877	0	"Flanker"	"Incong"	"NE.SW"	"V5"
"1376"	9	1	21	16	1	0.507838	0	"Flanker"	"Cong"	"E.W"	"V5"
"1377"	9	1	21	17	1	0.44453	0	"Flanker"	"Cong"	"E.W"	"V5"
"1378"	9	1	21	18	1	0.573698	0	"Flanker"	"Incong"	"E.W"	"V5"
"1379"	9	1	21	19	1	0.535835	0	"Flanker"	"Incong"	"E.W"	"V5"
"1380"	9	1	21	20	1	0.632359	0	"Flanker"	"Cong"	"E.W"	"V5"
"1381"	9	1	22	1	1	0.62242	0	"Flanker"	"Incong"	"NW.SE"	"F3.4"
"1382"	9	1	22	2	1	0.603706	0	"Flanker"	"Incong"	"NW.SE"	"F3.4"
"1383"	9	1	22	3	1	0.578725	0	"Flanker"	"Cong"	"NW.SE"	"F3.4"
"1384"	9	1	22	4	1	0.64533	0	"Flanker"	"Incong"	"NW.SE"	"F3.4"
"1385"	9	1	22	5	1	0.615298	0	"Flanker"	"Cong"	"NW.SE"	"F3.4"
"1386"	9	1	22	6	1	0.581352	0	"Flanker"	"Incong"	"E.W"	"F3.4"
"1387"	9	1	22	7	1	0.653652	0	"Flanker"	"Cong"	"E.W"	"F3.4"
"1388"	9	1	22	8	1	0.73548	0	"Flanker"	"Incong"	"E.W"	"F3.4"
"1389"	9	1	22	9	1	0.513982	0	"Flanker"	"Incong"	"E.W"	"F3.4"
"1390"	9	1	22	10	1	0.498418	0	"Flanker"	"Cong"	"E.W"	"F3.4"
"1391"	9	1	22	11	1	0.620966	1	"Flanker"	"Incong"	"N.S"	"F3.4"
"1392"	9	1	22	12	1	0.652772	1	"Flanker"	"Cong"	"N.S"	"F3.4"
"1393"	9	1	22	13	1	0.682875	1	"Flanker"	"Incong"	"N.S"	"F3.4"
"1394"	9	1	22	14	1	1.053442	1	"Flanker"	"Cong"	"N.S"	"F3.4"
"1395"	9	1	22	15	1	0.802364	1	"Flanker"	"Cong"	"N.S"	"F3.4"
"1396"	9	1	22	16	1	0.643333	2	"Flanker"	"Incong"	"NE.SW"	"F3.4"
"1397"	9	1	22	17	1	0.591155	2	"Flanker"	"Cong"	"NE.SW"	"F3.4"
"1398"	9	1	22	18	1	0.913857	2	"Flanker"	"Incong"	"NE.SW"	"F3.4"
"1399"	9	1	22	19	1	0.777943	2	"Flanker"	"Cong"	"NE.SW"	"F3.4"
"1400"	9	1	22	20	1	0.905806	2	"Flanker"	"Cong"	"NE.SW"	"F3.4"
"1401"	9	1	23	1	1	0.538633	0	"Flanker"	"Cong"	"NE.SW"	"CP1.2"
"1402"	9	1	23	2	1	0.591847	0	"Flanker"	"Cong"	"NE.SW"	"CP1.2"
"1403"	9	1	23	3	1	0.52903	0	"Flanker"	"Incong"	"NE.SW"	"CP1.2"
"1404"	9	1	23	4	1	0.485393	0	"Flanker"	"Cong"	"NE.SW"	"CP1.2"
"1405"	9	1	23	5	1	0.662626	0	"Flanker"	"Incong"	"NE.SW"	"CP1.2"
"1406"	9	1	23	6	1	0.626114	0	"Flanker"	"Incong"	"NW.SE"	"CP1.2"
"1407"	9	1	23	7	1	0.747322	0	"Flanker"	"Incong"	"NW.SE"	"CP1.2"
"1408"	9	1	23	8	1	0.345301	0	"Flanker"	"Cong"	"NW.SE"	"CP1.2"
"1409"	9	1	23	9	1	0.529286	0	"Flanker"	"Cong"	"NW.SE"	"CP1.2"
"1410"	9	1	23	10	1	0.432401	0	"Flanker"	"Incong"	"NW.SE"	"CP1.2"
"1411"	9	1	23	11	1	0.745214	0	"Flanker"	"Cong"	"N.S"	"CP1.2"
"1412"	9	1	23	12	1	0.514223	0	"Flanker"	"Incong"	"N.S"	"CP1.2"
"1413"	9	1	23	13	1	0.446122	0	"Flanker"	"Incong"	"N.S"	"CP1.2"
"1414"	9	1	23	14	1	0.416384	0	"Flanker"	"Cong"	"N.S"	"CP1.2"
"1415"	9	1	23	15	1	0.434797	0	"Flanker"	"Incong"	"N.S"	"CP1.2"
"1416"	9	1	23	16	1	0.541943	0	"Flanker"	"Incong"	"E.W"	"CP1.2"
"1417"	9	1	23	17	1	0.476349	0	"Flanker"	"Cong"	"E.W"	"CP1.2"
"1418"	9	1	23	18	1	0.521534	0	"Flanker"	"Cong"	"E.W"	"CP1.2"
"1419"	9	1	23	19	1	0.654523	0	"Flanker"	"Cong"	"E.W"	"CP1.2"
"1420"	9	1	23	20	1	0.636715	0	"Flanker"	"Incong"	"E.W"	"CP1.2"
"1421"	9	1	24	1	1	0.649896	4	"Flanker"	"Incong"	"NW.SE"	"LatOc"
"1422"	9	1	24	2	1	0.661579	4	"Flanker"	"Incong"	"NW.SE"	"LatOc"
"1423"	9	1	24	3	1	0.603393	4	"Flanker"	"Incong"	"NW.SE"	"LatOc"
"1424"	9	1	24	4	1	0.555823	4	"Flanker"	"Cong"	"NW.SE"	"LatOc"
"1425"	9	1	24	5	1	0.532759	4	"Flanker"	"Cong"	"NW.SE"	"LatOc"
"1426"	9	1	24	6	1	0.479103	1	"Flanker"	"Cong"	"NE.SW"	"LatOc"
"1427"	9	1	24	7	1	0.544703	1	"Flanker"	"Incong"	"NE.SW"	"LatOc"
"1428"	9	1	24	8	1	0.484032	1	"Flanker"	"Cong"	"NE.SW"	"LatOc"
"1429"	9	1	24	9	1	0.621212	1	"Flanker"	"Incong"	"NE.SW"	"LatOc"
"1430"	9	1	24	10	1	0.614438	1	"Flanker"	"Cong"	"NE.SW"	"LatOc"
"1431"	9	1	24	11	1	0.594013	5	"Flanker"	"Cong"	"N.S"	"LatOc"
"1432"	9	1	24	12	1	0.562545	5	"Flanker"	"Incong"	"N.S"	"LatOc"
"1433"	9	1	24	13	1	0.523651	5	"Flanker"	"Incong"	"N.S"	"LatOc"
"1434"	9	1	24	14	1	0.48116	5	"Flanker"	"Cong"	"N.S"	"LatOc"
"1435"	9	1	24	15	1	0.514182	5	"Flanker"	"Incong"	"N.S"	"LatOc"
"1436"	9	1	24	16	1	0.518194	2	"Flanker"	"Cong"	"E.W"	"LatOc"
"1437"	9	1	24	17	1	0.468767	2	"Flanker"	"Cong"	"E.W"	"LatOc"
"1438"	9	1	24	18	1	0.553593	2	"Flanker"	"Incong"	"E.W"	"LatOc"
"1439"	9	1	24	19	1	0.491437	2	"Flanker"	"Cong"	"E.W"	"LatOc"
"1440"	9	1	24	20	1	0.470745	2	"Flanker"	"Incong"	"E.W"	"LatOc"
"1441"	10	2	1	1	1	0.690652	0	"Flanker"	"Incong"	"NW.SE"	"CZ"
"1442"	10	2	1	2	1	0.544831	0	"Flanker"	"Cong"	"NW.SE"	"CZ"
"1443"	10	2	1	3	1	0.599955	0	"Flanker"	"Cong"	"NW.SE"	"CZ"
"1444"	10	2	1	4	1	0.605338	0	"Flanker"	"Incong"	"NW.SE"	"CZ"
"1445"	10	2	1	5	1	0.819145	0	"Flanker"	"Cong"	"NW.SE"	"CZ"
"1446"	10	2	1	6	1	0.614241	0	"Flanker"	"Incong"	"NE.SW"	"CZ"
"1447"	10	2	1	7	1	0.563223	0	"Flanker"	"Incong"	"NE.SW"	"CZ"
"1448"	10	2	1	8	1	0.557889	0	"Flanker"	"Cong"	"NE.SW"	"CZ"
"1449"	10	2	1	9	1	0.552134	0	"Flanker"	"Cong"	"NE.SW"	"CZ"
"1450"	10	2	1	10	1	0.454478	0	"Flanker"	"Incong"	"NE.SW"	"CZ"
"1451"	10	2	1	11	1	0.503352	0	"Flanker"	"Cong"	"N.S"	"CZ"
"1452"	10	2	1	12	1	0.457413	0	"Flanker"	"Cong"	"N.S"	"CZ"
"1453"	10	2	1	13	1	0.479057	0	"Flanker"	"Cong"	"N.S"	"CZ"
"1454"	10	2	1	14	1	0.480441	0	"Flanker"	"Incong"	"N.S"	"CZ"
"1455"	10	2	1	15	1	0.480227	0	"Flanker"	"Incong"	"N.S"	"CZ"
"1456"	10	2	1	16	1	0.514244	0	"Flanker"	"Cong"	"E.W"	"CZ"
"1457"	10	2	1	17	1	0.532574	0	"Flanker"	"Incong"	"E.W"	"CZ"
"1458"	10	2	1	18	1	0.429227	0	"Flanker"	"Incong"	"E.W"	"CZ"
"1459"	10	2	1	19	1	0.672711	0	"Flanker"	"Cong"	"E.W"	"CZ"
"1460"	10	2	1	20	1	0.765563	0	"Flanker"	"Incong"	"E.W"	"CZ"
"1461"	10	2	2	1	1	1.515502	3	"Flanker"	"Incong"	"N.S"	"F7.8"
"1462"	10	2	2	2	1	1.205073	3	"Flanker"	"Cong"	"N.S"	"F7.8"
"1463"	10	2	2	3	1	0.576224	3	"Flanker"	"Cong"	"N.S"	"F7.8"
"1464"	10	2	2	4	1	0.681152	3	"Flanker"	"Incong"	"N.S"	"F7.8"
"1465"	10	2	2	5	1	0.734614	3	"Flanker"	"Incong"	"N.S"	"F7.8"
"1466"	10	2	2	6	1	0.703045	3	"Flanker"	"Incong"	"NW.SE"	"F7.8"
"1467"	10	2	2	7	1	0.657797	3	"Flanker"	"Incong"	"NW.SE"	"F7.8"
"1468"	10	2	2	8	1	0.641763	3	"Flanker"	"Incong"	"NW.SE"	"F7.8"
"1469"	10	2	2	9	1	0.622882	3	"Flanker"	"Cong"	"NW.SE"	"F7.8"
"1470"	10	2	2	10	1	0.53814	3	"Flanker"	"Cong"	"NW.SE"	"F7.8"
"1471"	10	2	2	11	1	1.170381	4	"Flanker"	"Cong"	"E.W"	"F7.8"
"1472"	10	2	2	12	1	0.735469	4	"Flanker"	"Incong"	"E.W"	"F7.8"
"1473"	10	2	2	13	1	0.628504	4	"Flanker"	"Incong"	"E.W"	"F7.8"
"1474"	10	2	2	14	1	0.52839	4	"Flanker"	"Cong"	"E.W"	"F7.8"
"1475"	10	2	2	15	1	0.563795	4	"Flanker"	"Cong"	"E.W"	"F7.8"
"1476"	10	2	2	16	1	0.71145	3	"Flanker"	"Cong"	"NE.SW"	"F7.8"
"1477"	10	2	2	17	1	0.53831	3	"Flanker"	"Incong"	"NE.SW"	"F7.8"
"1478"	10	2	2	18	1	0.556605	3	"Flanker"	"Cong"	"NE.SW"	"F7.8"
"1479"	10	2	2	19	1	0.496637	3	"Flanker"	"Cong"	"NE.SW"	"F7.8"
"1480"	10	2	2	20	1	0.446177	3	"Flanker"	"Incong"	"NE.SW"	"F7.8"
"1481"	10	2	3	1	1	0.651625	0	"Flanker"	"Cong"	"E.W"	"P3.4"
"1482"	10	2	3	2	1	0.574999	0	"Flanker"	"Incong"	"E.W"	"P3.4"
"1483"	10	2	3	3	1	0.567139	0	"Flanker"	"Incong"	"E.W"	"P3.4"
"1484"	10	2	3	4	1	0.527392	0	"Flanker"	"Incong"	"E.W"	"P3.4"
"1485"	10	2	3	5	1	0.459983	0	"Flanker"	"Cong"	"E.W"	"P3.4"
"1486"	10	2	3	6	1	0.63512	0	"Flanker"	"Cong"	"N.S"	"P3.4"
"1487"	10	2	3	7	1	0.566852	0	"Flanker"	"Cong"	"N.S"	"P3.4"
"1488"	10	2	3	8	1	0.470556	0	"Flanker"	"Cong"	"N.S"	"P3.4"
"1489"	10	2	3	9	1	0.609483	0	"Flanker"	"Incong"	"N.S"	"P3.4"
"1490"	10	2	3	10	1	0.663168	0	"Flanker"	"Incong"	"N.S"	"P3.4"
"1491"	10	2	3	11	1	0.616611	0	"Flanker"	"Cong"	"NE.SW"	"P3.4"
"1492"	10	2	3	12	1	0.382204	0	"Flanker"	"Cong"	"NE.SW"	"P3.4"
"1493"	10	2	3	13	1	0.527815	0	"Flanker"	"Incong"	"NE.SW"	"P3.4"
"1494"	10	2	3	14	1	0.558526	0	"Flanker"	"Cong"	"NE.SW"	"P3.4"
"1495"	10	2	3	15	1	0.581935	0	"Flanker"	"Incong"	"NE.SW"	"P3.4"
"1496"	10	2	3	16	1	0.646482	0	"Flanker"	"Incong"	"NW.SE"	"P3.4"
"1497"	10	2	3	17	1	0.493662	0	"Flanker"	"Cong"	"NW.SE"	"P3.4"
"1498"	10	2	3	18	1	0.591871	0	"Flanker"	"Incong"	"NW.SE"	"P3.4"
"1499"	10	2	3	19	1	0.483107	0	"Flanker"	"Cong"	"NW.SE"	"P3.4"
"1500"	10	2	3	20	1	0.659402	0	"Flanker"	"Incong"	"NW.SE"	"P3.4"
"1501"	10	2	4	1	1	0.559565	0	"Flanker"	"Cong"	"E.W"	"C3.4"
"1502"	10	2	4	2	1	0.580052	0	"Flanker"	"Incong"	"E.W"	"C3.4"
"1503"	10	2	4	3	1	0.497406	0	"Flanker"	"Cong"	"E.W"	"C3.4"
"1504"	10	2	4	4	1	0.540699	0	"Flanker"	"Incong"	"E.W"	"C3.4"
"1505"	10	2	4	5	1	0.491899	0	"Flanker"	"Incong"	"E.W"	"C3.4"
"1506"	10	2	4	6	1	0.623244	5	"Flanker"	"Cong"	"NW.SE"	"C3.4"
"1507"	10	2	4	7	1	0.95755	5	"Flanker"	"Cong"	"NW.SE"	"C3.4"
"1508"	10	2	4	8	1	1.435643	5	"Flanker"	"Cong"	"NW.SE"	"C3.4"
"1509"	10	2	4	9	1	0.823324	5	"Flanker"	"Incong"	"NW.SE"	"C3.4"
"1510"	10	2	4	10	1	0.671811	5	"Flanker"	"Incong"	"NW.SE"	"C3.4"
"1511"	10	2	4	11	1	0.590618	0	"Flanker"	"Cong"	"NE.SW"	"C3.4"
"1512"	10	2	4	12	1	0.603421	0	"Flanker"	"Incong"	"NE.SW"	"C3.4"
"1513"	10	2	4	13	1	0.554458	0	"Flanker"	"Incong"	"NE.SW"	"C3.4"
"1514"	10	2	4	14	1	0.592037	0	"Flanker"	"Incong"	"NE.SW"	"C3.4"
"1515"	10	2	4	15	1	0.562595	0	"Flanker"	"Cong"	"NE.SW"	"C3.4"
"1516"	10	2	4	16	1	0.726006	5	"Flanker"	"Cong"	"N.S"	"C3.4"
"1517"	10	2	4	17	1	0.611459	5	"Flanker"	"Incong"	"N.S"	"C3.4"
"1518"	10	2	4	18	1	0.632606	5	"Flanker"	"Cong"	"N.S"	"C3.4"
"1519"	10	2	4	19	1	0.62829	5	"Flanker"	"Cong"	"N.S"	"C3.4"
"1520"	10	2	4	20	1	0.569037	5	"Flanker"	"Incong"	"N.S"	"C3.4"
"1521"	10	2	5	1	1	0.635605	0	"Flanker"	"Incong"	"NE.SW"	"CP1.2"
"1522"	10	2	5	2	1	0.451458	0	"Flanker"	"Cong"	"NE.SW"	"CP1.2"
"1523"	10	2	5	3	1	0.554423	0	"Flanker"	"Cong"	"NE.SW"	"CP1.2"
"1524"	10	2	5	4	1	0.868319	0	"Flanker"	"Incong"	"NE.SW"	"CP1.2"
"1525"	10	2	5	5	1	0.314583	0	"Flanker"	"Incong"	"NE.SW"	"CP1.2"
"1526"	10	2	5	6	1	0.51806	0	"Flanker"	"Incong"	"N.S"	"CP1.2"
"1527"	10	2	5	7	0	0.399662	0	"Flanker"	"Incong"	"N.S"	"CP1.2"
"1528"	10	2	5	8	1	0.55025	0	"Flanker"	"Cong"	"N.S"	"CP1.2"
"1529"	10	2	5	9	1	0.625314	0	"Flanker"	"Cong"	"N.S"	"CP1.2"
"1530"	10	2	5	10	1	0.525551	0	"Flanker"	"Cong"	"N.S"	"CP1.2"
"1531"	10	2	5	11	1	0.54013	0	"Flanker"	"Incong"	"NW.SE"	"CP1.2"
"1532"	10	2	5	12	1	0.728306	0	"Flanker"	"Cong"	"NW.SE"	"CP1.2"
"1533"	10	2	5	13	1	0.571756	0	"Flanker"	"Incong"	"NW.SE"	"CP1.2"
"1534"	10	2	5	14	1	0.417086	0	"Flanker"	"Cong"	"NW.SE"	"CP1.2"
"1535"	10	2	5	15	1	0.393364	0	"Flanker"	"Cong"	"NW.SE"	"CP1.2"
"1536"	10	2	5	16	1	0.540085	0	"Flanker"	"Incong"	"E.W"	"CP1.2"
"1537"	10	2	5	17	1	0.519818	0	"Flanker"	"Incong"	"E.W"	"CP1.2"
"1538"	10	2	5	18	1	0.556665	0	"Flanker"	"Cong"	"E.W"	"CP1.2"
"1539"	10	2	5	19	1	0.561875	0	"Flanker"	"Incong"	"E.W"	"CP1.2"
"1540"	10	2	5	20	1	0.432599	0	"Flanker"	"Cong"	"E.W"	"CP1.2"
"1541"	10	2	6	1	1	0.527077	0	"Flanker"	"Cong"	"N.S"	"OZ"
"1542"	10	2	6	2	1	0.738293	0	"Flanker"	"Incong"	"N.S"	"OZ"
"1543"	10	2	6	3	1	0.651575	0	"Flanker"	"Cong"	"N.S"	"OZ"
"1544"	10	2	6	4	1	0.61897	0	"Flanker"	"Incong"	"N.S"	"OZ"
"1545"	10	2	6	5	1	0.725194	0	"Flanker"	"Cong"	"N.S"	"OZ"
"1546"	10	2	6	6	1	0.619433	0	"Flanker"	"Cong"	"NW.SE"	"OZ"
"1547"	10	2	6	7	1	0.346169	0	"Flanker"	"Cong"	"NW.SE"	"OZ"
"1548"	10	2	6	8	1	0.495468	0	"Flanker"	"Incong"	"NW.SE"	"OZ"
"1549"	10	2	6	9	1	0.657774	0	"Flanker"	"Incong"	"NW.SE"	"OZ"
"1550"	10	2	6	10	1	0.564131	0	"Flanker"	"Incong"	"NW.SE"	"OZ"
"1551"	10	2	6	11	1	0.575579	0	"Flanker"	"Incong"	"NE.SW"	"OZ"
"1552"	10	2	6	12	1	0.435646	0	"Flanker"	"Incong"	"NE.SW"	"OZ"
"1553"	10	2	6	13	1	0.391067	0	"Flanker"	"Cong"	"NE.SW"	"OZ"
"1554"	10	2	6	14	1	0.357601	0	"Flanker"	"Cong"	"NE.SW"	"OZ"
"1555"	10	2	6	15	1	0.372532	0	"Flanker"	"Cong"	"NE.SW"	"OZ"
"1556"	10	2	6	16	1	0.725396	0	"Flanker"	"Incong"	"E.W"	"OZ"
"1557"	10	2	6	17	1	0.496492	0	"Flanker"	"Incong"	"E.W"	"OZ"
"1558"	10	2	6	18	1	0.449367	0	"Flanker"	"Cong"	"E.W"	"OZ"
"1559"	10	2	6	19	1	0.483172	0	"Flanker"	"Incong"	"E.W"	"OZ"
"1560"	10	2	6	20	1	0.474321	0	"Flanker"	"Cong"	"E.W"	"OZ"
"1561"	10	2	7	1	1	0.616525	1	"Flanker"	"Cong"	"NE.SW"	"FZ"
"1562"	10	2	7	2	1	0.698429	1	"Flanker"	"Incong"	"NE.SW"	"FZ"
"1563"	10	2	7	3	1	1.115463	1	"Flanker"	"Cong"	"NE.SW"	"FZ"
"1564"	10	2	7	4	1	0.934319	1	"Flanker"	"Incong"	"NE.SW"	"FZ"
"1565"	10	2	7	5	1	1.207641	1	"Flanker"	"Incong"	"NE.SW"	"FZ"
"1566"	10	2	7	6	1	0.550661	1	"Flanker"	"Cong"	"NW.SE"	"FZ"
"1567"	10	2	7	7	1	0.797384	1	"Flanker"	"Incong"	"NW.SE"	"FZ"
"1568"	10	2	7	8	1	0.969194	1	"Flanker"	"Cong"	"NW.SE"	"FZ"
"1569"	10	2	7	9	1	0.693683	1	"Flanker"	"Cong"	"NW.SE"	"FZ"
"1570"	10	2	7	10	1	1.019652	1	"Flanker"	"Incong"	"NW.SE"	"FZ"
"1571"	10	2	7	11	1	0.701917	1	"Flanker"	"Incong"	"N.S"	"FZ"
"1572"	10	2	7	12	1	1.030164	1	"Flanker"	"Incong"	"N.S"	"FZ"
"1573"	10	2	7	13	1	0.890814	1	"Flanker"	"Incong"	"N.S"	"FZ"
"1574"	10	2	7	14	1	1.052191	1	"Flanker"	"Cong"	"N.S"	"FZ"
"1575"	10	2	7	15	1	0.947331	1	"Flanker"	"Cong"	"N.S"	"FZ"
"1576"	10	2	7	16	1	0.974499	0	"Flanker"	"Cong"	"E.W"	"FZ"
"1577"	10	2	7	17	1	0.96749	0	"Flanker"	"Incong"	"E.W"	"FZ"
"1578"	10	2	7	18	1	0.704359	0	"Flanker"	"Cong"	"E.W"	"FZ"
"1579"	10	2	7	19	1	0.811279	0	"Flanker"	"Cong"	"E.W"	"FZ"
"1580"	10	2	7	20	1	1.159267	0	"Flanker"	"Incong"	"E.W"	"FZ"
"1581"	10	2	8	1	1	0.798531	1	"Flanker"	"Incong"	"NW.SE"	"V5"
"1582"	10	2	8	2	1	0.805713	1	"Flanker"	"Cong"	"NW.SE"	"V5"
"1583"	10	2	8	3	1	1.391728	1	"Flanker"	"Cong"	"NW.SE"	"V5"
"1584"	10	2	8	4	1	1.199495	1	"Flanker"	"Cong"	"NW.SE"	"V5"
"1585"	10	2	8	5	1	0.602552	1	"Flanker"	"Incong"	"NW.SE"	"V5"
"1586"	10	2	8	6	1	0.884095	0	"Flanker"	"Incong"	"N.S"	"V5"
"1587"	10	2	8	7	1	0.81166	0	"Flanker"	"Cong"	"N.S"	"V5"
"1588"	10	2	8	8	1	0.708485	0	"Flanker"	"Cong"	"N.S"	"V5"
"1589"	10	2	8	9	1	0.727999	0	"Flanker"	"Incong"	"N.S"	"V5"
"1590"	10	2	8	10	1	0.809698	0	"Flanker"	"Incong"	"N.S"	"V5"
"1591"	10	2	8	11	1	0.715722	0	"Flanker"	"Incong"	"E.W"	"V5"
"1592"	10	2	8	12	1	0.713955	0	"Flanker"	"Incong"	"E.W"	"V5"
"1593"	10	2	8	13	1	0.834221	0	"Flanker"	"Cong"	"E.W"	"V5"
"1594"	10	2	8	14	1	0.97035	0	"Flanker"	"Cong"	"E.W"	"V5"
"1595"	10	2	8	15	1	0.595815	0	"Flanker"	"Cong"	"E.W"	"V5"
"1596"	10	2	8	16	1	0.824321	0	"Flanker"	"Incong"	"NE.SW"	"V5"
"1597"	10	2	8	17	1	0.699623	0	"Flanker"	"Cong"	"NE.SW"	"V5"
"1598"	10	2	8	18	1	0.703177	0	"Flanker"	"Incong"	"NE.SW"	"V5"
"1599"	10	2	8	19	1	0.524106	0	"Flanker"	"Cong"	"NE.SW"	"V5"
"1600"	10	2	8	20	1	0.871576	0	"Flanker"	"Incong"	"NE.SW"	"V5"
"1601"	10	2	9	1	1	1.123571	4	"Flanker"	"Cong"	"N.S"	"T7.8"
"1602"	10	2	9	2	1	1.201254	4	"Flanker"	"Incong"	"N.S"	"T7.8"
"1603"	10	2	9	3	1	0.982837	4	"Flanker"	"Cong"	"N.S"	"T7.8"
"1604"	10	2	9	4	1	1.01261	4	"Flanker"	"Incong"	"N.S"	"T7.8"
"1605"	10	2	9	5	1	0.929542	4	"Flanker"	"Cong"	"N.S"	"T7.8"
"1606"	10	2	9	6	1	0.838533	2	"Flanker"	"Cong"	"NW.SE"	"T7.8"
"1607"	10	2	9	7	1	0.728821	2	"Flanker"	"Cong"	"NW.SE"	"T7.8"
"1608"	10	2	9	8	1	1.141891	2	"Flanker"	"Incong"	"NW.SE"	"T7.8"
"1609"	10	2	9	9	1	1.183759	2	"Flanker"	"Incong"	"NW.SE"	"T7.8"
"1610"	10	2	9	10	1	0.754466	2	"Flanker"	"Incong"	"NW.SE"	"T7.8"
"1611"	10	2	9	11	1	1.000412	2	"Flanker"	"Cong"	"E.W"	"T7.8"
"1612"	10	2	9	12	1	1.364367	2	"Flanker"	"Incong"	"E.W"	"T7.8"
"1613"	10	2	9	13	1	1.291338	2	"Flanker"	"Cong"	"E.W"	"T7.8"
"1614"	10	2	9	14	1	1.215879	2	"Flanker"	"Incong"	"E.W"	"T7.8"
"1615"	10	2	9	15	1	0.966761	2	"Flanker"	"Incong"	"E.W"	"T7.8"
"1616"	10	2	9	16	1	1.008915	2	"Flanker"	"Cong"	"NE.SW"	"T7.8"
"1617"	10	2	9	17	1	0.757902	2	"Flanker"	"Cong"	"NE.SW"	"T7.8"
"1618"	10	2	9	18	1	1.050485	2	"Flanker"	"Incong"	"NE.SW"	"T7.8"
"1619"	10	2	9	19	1	0.852011	2	"Flanker"	"Incong"	"NE.SW"	"T7.8"
"1620"	10	2	9	20	1	0.7907	2	"Flanker"	"Cong"	"NE.SW"	"T7.8"
"1621"	10	2	10	1	1	0.648306	0	"Flanker"	"Cong"	"N.S"	"PO3.4"
"1622"	10	2	10	2	1	0.583883	0	"Flanker"	"Incong"	"N.S"	"PO3.4"
"1623"	10	2	10	3	1	0.771861	0	"Flanker"	"Incong"	"N.S"	"PO3.4"
"1624"	10	2	10	4	1	0.513595	0	"Flanker"	"Cong"	"N.S"	"PO3.4"
"1625"	10	2	10	5	1	0.692265	0	"Flanker"	"Cong"	"N.S"	"PO3.4"
"1626"	10	2	10	6	1	0.506938	0	"Flanker"	"Cong"	"E.W"	"PO3.4"
"1627"	10	2	10	7	1	0.530031	0	"Flanker"	"Incong"	"E.W"	"PO3.4"
"1628"	10	2	10	8	1	0.821207	0	"Flanker"	"Cong"	"E.W"	"PO3.4"
"1629"	10	2	10	9	1	0.518712	0	"Flanker"	"Incong"	"E.W"	"PO3.4"
"1630"	10	2	10	10	1	0.501802	0	"Flanker"	"Incong"	"E.W"	"PO3.4"
"1631"	10	2	10	11	1	0.577606	0	"Flanker"	"Incong"	"NW.SE"	"PO3.4"
"1632"	10	2	10	12	1	0.499343	0	"Flanker"	"Incong"	"NW.SE"	"PO3.4"
"1633"	10	2	10	13	1	0.523125	0	"Flanker"	"Cong"	"NW.SE"	"PO3.4"
"1634"	10	2	10	14	1	0.578263	0	"Flanker"	"Cong"	"NW.SE"	"PO3.4"
"1635"	10	2	10	15	1	0.706252	0	"Flanker"	"Incong"	"NW.SE"	"PO3.4"
